PE UV       SUBTECH     SPECTRUM    ASCII       PEDS        4.00        
   -1
J23.Sample.Raw.asc
18/05/02
11:32:01.00
18/05/02
11:32:01.00
Administrator
longitudinal
325.000000
1
Lambda 850
850L1710193
PerkinElmer UV WinLab 6.4.0.973 / 2.02.06 Lambda 800 UV/VIS, Jan 28 2016 16:58:34

0
0
2
0
0
UV/VIS
1
1
1
RBeamAtt,SBeamAtt,60mm sphere
0
0
0
0
Fix
 
0
0.16
0
0
0
 
 
 
0
 
0
319.2
0
Front
100
 
S:100 R:100
 
0
0
0
 
0
 
 
 
0
 
 
0
0
0
0
0
 
 
 
 
0
0


0
0
#HDR
-1
-1
#GR
nm
%T
1.0
0.0
900.000000
-1.000000
576
8
77.606788
0.022465
#DATA
900.000000	71.435224
899.000000	77.606788
898.000000	75.070925
897.000000	75.657794
896.000000	70.465138
895.000000	72.426540
894.000000	74.336809
893.000000	71.911342
892.000000	73.279527
891.000000	73.421993
890.000000	69.763187
889.000000	71.869830
888.000000	75.684442
887.000000	72.367157
886.000000	75.338792
885.000000	70.771926
884.000000	74.786414
883.000000	76.778315
882.000000	74.722211
881.000000	73.121141
880.000000	72.186378
879.000000	73.260293
878.000000	73.423049
877.000000	70.797107
876.000000	73.765495
875.000000	74.222089
874.000000	72.790374
873.000000	70.851183
872.000000	71.523245
871.000000	75.370654
870.000000	73.054121
869.000000	72.181458
868.000000	71.888440
867.000000	72.250797
866.000000	73.017214
865.000000	72.788279
864.000000	72.474749
863.000000	72.911955
862.000000	72.503106
861.000000	72.370826
860.000000	71.774347
859.000000	72.285376
858.000000	72.167659
857.000000	72.027199
856.000000	72.014268
855.000000	72.157051
854.000000	72.182590
853.000000	71.906251
852.000000	71.884515
851.000000	72.298546
850.000000	72.216656
849.000000	71.748659
848.000000	71.681415
847.000000	71.806868
846.000000	71.856845
845.000000	71.804793
844.000000	71.658525
843.000000	71.507316
842.000000	71.476800
841.000000	71.648957
840.000000	71.644962
839.000000	71.406386
838.000000	71.246270
837.000000	71.264195
836.000000	71.445516
835.000000	71.554976
834.000000	71.296156
833.000000	71.385448
832.000000	71.251006
831.000000	71.071909
830.000000	71.006653
829.000000	70.971572
828.000000	70.959266
827.000000	71.179751
826.000000	71.139821
825.000000	71.010842
824.000000	71.001424
823.000000	70.947240
822.000000	70.999104
821.000000	70.959852
820.000000	70.911663
819.000000	70.674376
818.000000	70.721952
817.000000	70.817707
816.000000	70.799078
815.000000	70.717767
814.000000	70.926454
813.000000	70.680828
812.000000	70.764869
811.000000	70.664976
810.000000	70.695090
809.000000	70.671814
808.000000	70.732527
807.000000	70.604359
806.000000	70.632387
805.000000	70.755097
804.000000	70.781839
803.000000	70.640366
802.000000	70.514924
801.000000	70.487260
800.000000	70.472307
799.000000	70.535565
798.000000	70.653957
797.000000	70.431456
796.000000	70.229840
795.000000	70.496455
794.000000	70.417756
793.000000	70.483866
792.000000	70.509198
791.000000	70.496858
790.000000	70.523117
789.000000	70.490675
788.000000	70.527134
787.000000	70.413104
786.000000	70.342696
785.000000	70.145972
784.000000	70.139355
783.000000	70.311636
782.000000	70.247928
781.000000	70.226176
780.000000	70.218711
779.000000	70.194440
778.000000	70.222007
777.000000	70.222228
776.000000	70.108975
775.000000	70.120736
774.000000	70.349011
773.000000	70.296278
772.000000	70.196583
771.000000	70.237594
770.000000	70.121060
769.000000	70.061002
768.000000	70.124246
767.000000	70.101630
766.000000	70.102977
765.000000	70.174371
764.000000	70.111713
763.000000	69.950960
762.000000	69.931668
761.000000	69.998225
760.000000	70.048269
759.000000	70.106613
758.000000	70.020586
757.000000	69.901588
756.000000	69.879650
755.000000	69.770888
754.000000	69.743150
753.000000	69.886851
752.000000	70.002439
751.000000	69.998497
750.000000	69.953010
749.000000	69.916425
748.000000	69.849462
747.000000	69.830585
746.000000	69.824208
745.000000	69.798374
744.000000	69.703828
743.000000	69.698819
742.000000	69.677078
741.000000	69.562373
740.000000	69.579830
739.000000	69.548545
738.000000	69.594026
737.000000	69.677358
736.000000	69.615650
735.000000	69.533771
734.000000	69.583260
733.000000	69.512210
732.000000	69.470494
731.000000	69.543737
730.000000	69.468021
729.000000	69.520942
728.000000	69.377305
727.000000	69.414125
726.000000	69.314201
725.000000	69.296696
724.000000	69.394215
723.000000	69.377506
722.000000	69.465961
721.000000	69.486570
720.000000	69.405376
719.000000	69.409590
718.000000	69.296730
717.000000	69.282665
716.000000	69.304037
715.000000	69.296489
714.000000	69.174527
713.000000	69.209755
712.000000	69.245118
711.000000	69.089412
710.000000	69.085408
709.000000	69.150609
708.000000	69.088346
707.000000	69.139044
706.000000	69.129701
705.000000	69.070480
704.000000	69.067809
703.000000	69.010920
702.000000	68.975820
701.000000	68.974722
700.000000	68.981091
699.000000	68.973573
698.000000	68.998639
697.000000	68.879386
696.000000	68.969333
695.000000	68.824827
694.000000	68.759647
693.000000	68.794045
692.000000	68.883527
691.000000	68.747847
690.000000	68.680174
689.000000	68.617297
688.000000	68.598379
687.000000	68.626424
686.000000	68.565179
685.000000	68.580010
684.000000	68.562641
683.000000	68.506704
682.000000	68.500964
681.000000	68.338166
680.000000	68.536993
679.000000	68.415666
678.000000	68.470831
677.000000	68.424769
676.000000	68.345392
675.000000	68.385758
674.000000	68.339797
673.000000	68.266428
672.000000	68.227660
671.000000	68.342905
670.000000	68.260861
669.000000	68.280901
668.000000	68.100215
667.000000	68.090232
666.000000	68.147201
665.000000	68.091174
664.000000	68.145382
663.000000	68.087997
662.000000	68.060207
661.000000	68.029807
660.000000	68.028786
659.000000	67.952710
658.000000	67.929518
657.000000	67.940837
656.000000	68.005999
655.000000	67.887244
654.000000	67.880790
653.000000	67.863277
652.000000	67.803966
651.000000	67.778887
650.000000	67.833031
649.000000	67.842285
648.000000	67.743786
647.000000	67.705567
646.000000	67.717570
645.000000	67.711502
644.000000	67.674122
643.000000	67.700411
642.000000	67.536218
641.000000	67.656644
640.000000	67.534971
639.000000	67.610898
638.000000	67.553725
637.000000	67.554417
636.000000	67.424065
635.000000	67.438940
634.000000	67.480257
633.000000	67.410548
632.000000	67.337377
631.000000	67.398529
630.000000	67.347731
629.000000	67.427255
628.000000	67.290395
627.000000	67.340915
626.000000	67.231478
625.000000	67.281964
624.000000	67.235240
623.000000	67.214446
622.000000	67.159461
621.000000	67.098673
620.000000	67.109005
619.000000	67.108027
618.000000	67.012455
617.000000	67.038285
616.000000	66.956729
615.000000	66.907498
614.000000	66.917198
613.000000	66.871561
612.000000	66.887900
611.000000	66.854423
610.000000	66.852682
609.000000	66.859830
608.000000	66.775869
607.000000	66.760389
606.000000	66.730418
605.000000	66.703494
604.000000	66.643999
603.000000	66.617065
602.000000	66.584115
601.000000	66.530244
600.000000	66.535638
599.000000	66.514161
598.000000	66.493936
597.000000	66.468224
596.000000	66.453725
595.000000	66.447827
594.000000	66.403570
593.000000	66.362431
592.000000	66.314864
591.000000	66.299420
590.000000	66.248445
589.000000	66.221652
588.000000	66.185640
587.000000	66.132671
586.000000	66.133759
585.000000	66.098576
584.000000	66.116301
583.000000	66.034298
582.000000	66.008287
581.000000	65.962188
580.000000	65.962485
579.000000	65.916658
578.000000	65.933169
577.000000	65.819746
576.000000	65.828036
575.000000	65.828618
574.000000	65.793607
573.000000	65.743129
572.000000	65.696071
571.000000	65.663379
570.000000	65.577607
569.000000	65.549705
568.000000	65.581622
567.000000	65.579455
566.000000	65.560659
565.000000	65.528041
564.000000	65.491032
563.000000	65.399069
562.000000	65.372615
561.000000	65.336739
560.000000	65.324272
559.000000	65.301878
558.000000	65.251776
557.000000	65.215309
556.000000	65.153418
555.000000	65.133124
554.000000	65.124511
553.000000	65.068386
552.000000	65.082403
551.000000	65.039205
550.000000	64.973807
549.000000	64.917544
548.000000	64.905195
547.000000	64.837436
546.000000	64.802965
545.000000	64.812018
544.000000	64.759208
543.000000	64.726363
542.000000	64.669841
541.000000	64.622857
540.000000	64.583253
539.000000	64.548438
538.000000	64.495135
537.000000	64.487897
536.000000	64.467829
535.000000	64.424852
534.000000	64.378060
533.000000	64.356044
532.000000	64.300605
531.000000	64.238658
530.000000	64.212414
529.000000	64.186713
528.000000	64.117060
527.000000	64.095871
526.000000	64.073915
525.000000	64.027736
524.000000	63.962660
523.000000	63.908285
522.000000	63.869287
521.000000	63.855197
520.000000	63.796877
519.000000	63.742876
518.000000	63.709310
517.000000	63.683268
516.000000	63.651436
515.000000	63.581957
514.000000	63.527359
513.000000	63.489982
512.000000	63.434518
511.000000	63.384907
510.000000	63.340629
509.000000	63.290782
508.000000	63.259301
507.000000	63.207881
506.000000	63.157536
505.000000	63.134506
504.000000	63.055414
503.000000	62.983168
502.000000	62.984874
501.000000	62.929061
500.000000	62.873337
499.000000	62.857999
498.000000	62.804710
497.000000	62.755232
496.000000	62.722435
495.000000	62.658936
494.000000	62.575104
493.000000	62.528526
492.000000	62.496463
491.000000	62.440741
490.000000	62.404085
489.000000	62.373785
488.000000	62.342177
487.000000	62.290158
486.000000	62.208037
485.000000	62.129785
484.000000	62.120593
483.000000	62.059956
482.000000	61.963555
481.000000	61.919051
480.000000	61.823065
479.000000	61.741080
478.000000	61.721118
477.000000	61.621936
476.000000	61.563830
475.000000	61.472669
474.000000	61.452708
473.000000	61.399255
472.000000	61.293833
471.000000	61.227361
470.000000	61.170518
469.000000	61.115185
468.000000	61.047486
467.000000	60.971862
466.000000	60.884856
465.000000	60.798863
464.000000	60.732859
463.000000	60.671418
462.000000	60.634779
461.000000	60.537208
460.000000	60.473051
459.000000	60.398761
458.000000	60.289004
457.000000	60.283459
456.000000	60.168921
455.000000	60.097064
454.000000	60.049689
453.000000	59.883178
452.000000	59.793180
451.000000	59.712626
450.000000	59.679298
449.000000	59.592769
448.000000	59.447929
447.000000	59.377772
446.000000	59.246876
445.000000	59.113253
444.000000	59.013379
443.000000	58.962324
442.000000	58.880207
441.000000	58.735656
440.000000	58.667806
439.000000	58.538538
438.000000	58.357117
437.000000	58.295367
436.000000	58.186770
435.000000	58.005834
434.000000	57.961030
433.000000	57.769199
432.000000	57.598916
431.000000	57.479630
430.000000	57.331444
429.000000	57.223803
428.000000	57.018355
427.000000	56.938292
426.000000	56.725347
425.000000	56.604246
424.000000	56.409067
423.000000	56.249149
422.000000	56.036397
421.000000	55.872572
420.000000	55.715727
419.000000	55.486215
418.000000	55.306129
417.000000	55.163377
416.000000	54.932920
415.000000	54.775556
414.000000	54.495970
413.000000	54.315530
412.000000	54.070340
411.000000	53.855695
410.000000	53.557464
409.000000	53.248573
408.000000	53.077138
407.000000	52.801536
406.000000	52.566986
405.000000	52.239465
404.000000	51.997633
403.000000	51.667196
402.000000	51.280090
401.000000	51.070083
400.000000	50.802847
399.000000	50.446892
398.000000	50.165329
397.000000	49.725158
396.000000	49.460616
395.000000	49.003120
394.000000	48.698539
393.000000	48.379614
392.000000	48.007902
391.000000	47.597345
390.000000	47.174886
389.000000	46.843509
388.000000	46.422845
387.000000	46.053033
386.000000	45.583464
385.000000	45.272267
384.000000	44.829688
383.000000	44.372865
382.000000	44.048360
381.000000	43.579799
380.000000	43.261242
379.000000	42.745992
378.000000	42.139255
377.000000	41.693273
376.000000	41.297884
375.000000	40.893036
374.000000	40.382920
373.000000	39.912154
372.000000	39.336954
371.000000	38.856975
370.000000	38.103714
369.000000	37.397335
368.000000	36.629969
367.000000	35.723763
366.000000	34.751900
365.000000	33.672780
364.000000	32.411835
363.000000	31.027587
362.000000	29.442927
361.000000	27.821992
360.000000	25.982610
359.000000	23.964457
358.000000	21.926217
357.000000	19.584509
356.000000	17.221524
355.000000	14.822313
354.000000	12.395080
353.000000	10.060756
352.000000	7.875381
351.000000	5.903917
350.000000	4.225262
349.000000	2.853859
348.000000	1.824783
347.000000	1.063949
346.000000	0.577088
345.000000	0.302425
344.000000	0.148265
343.000000	0.070269
342.000000	0.038206
341.000000	0.022925
340.000000	0.026727
339.000000	0.025963
338.000000	0.022465
337.000000	0.025017
336.000000	0.027534
335.000000	0.022972
334.000000	0.029431
333.000000	0.031024
332.000000	0.037170
331.000000	0.038449
330.000000	0.030284
329.000000	0.046304
328.000000	0.035715
327.000000	0.026923
326.000000	0.038851
325.000000	0.048973
