PE UV       SUBTECH     SPECTRUM    ASCII       PEDS        4.00        
   -1
J31.Sample.Raw.asc
18/05/02
11:11:31.00
18/05/02
11:11:31.00
Administrator
longitudinal
325.000000
1
Lambda 850
850L1710193
PerkinElmer UV WinLab 6.4.0.973 / 2.02.06 Lambda 800 UV/VIS, Jan 28 2016 16:58:34

0
0
2
0
0
UV/VIS
1
1
1
RBeamAtt,SBeamAtt,60mm sphere
0
0
0
0
Fix
 
0
0.16
0
0
0
 
 
 
0
 
0
319.2
0
Front
100
 
S:100 R:100
 
0
0
0
 
0
 
 
 
0
 
 
0
0
0
0
0
 
 
 
 
0
0


0
0
#HDR
-1
-1
#GR
nm
%T
1.0
0.0
900.000000
-1.000000
576
8
78.303361
0.020636
#DATA
900.000000	75.243027
899.000000	77.915820
898.000000	73.142369
897.000000	74.886844
896.000000	70.396821
895.000000	73.565780
894.000000	74.056639
893.000000	78.303361
892.000000	73.099762
891.000000	74.098833
890.000000	71.963980
889.000000	74.130900
888.000000	75.498562
887.000000	75.708549
886.000000	75.309993
885.000000	71.352704
884.000000	73.755914
883.000000	75.882380
882.000000	76.063925
881.000000	73.448033
880.000000	73.692797
879.000000	72.902013
878.000000	75.534889
877.000000	71.037452
876.000000	75.888573
875.000000	75.495375
874.000000	72.653241
873.000000	73.612890
872.000000	73.308223
871.000000	74.899101
870.000000	74.267624
869.000000	74.279575
868.000000	73.120234
867.000000	73.468603
866.000000	74.596340
865.000000	74.586175
864.000000	75.213077
863.000000	74.679486
862.000000	74.004649
861.000000	74.183089
860.000000	73.350625
859.000000	72.948785
858.000000	73.666593
857.000000	73.563782
856.000000	73.629580
855.000000	73.299086
854.000000	73.967188
853.000000	73.382482
852.000000	73.233089
851.000000	73.990380
850.000000	73.788613
849.000000	73.310160
848.000000	72.949838
847.000000	73.312113
846.000000	73.409504
845.000000	73.436657
844.000000	73.047920
843.000000	73.121239
842.000000	73.334905
841.000000	73.609556
840.000000	73.364618
839.000000	73.159621
838.000000	73.053552
837.000000	73.118405
836.000000	73.184567
835.000000	73.054278
834.000000	73.112890
833.000000	73.025605
832.000000	72.708928
831.000000	72.911385
830.000000	72.869669
829.000000	72.643398
828.000000	72.722346
827.000000	72.626751
826.000000	72.495286
825.000000	72.612997
824.000000	72.382070
823.000000	72.185818
822.000000	72.334592
821.000000	72.633426
820.000000	72.537264
819.000000	72.335078
818.000000	72.292587
817.000000	72.450026
816.000000	72.223862
815.000000	72.165895
814.000000	72.361515
813.000000	72.305083
812.000000	72.307087
811.000000	72.330659
810.000000	72.367002
809.000000	72.346257
808.000000	72.316524
807.000000	72.233810
806.000000	72.279913
805.000000	72.383246
804.000000	72.341537
803.000000	72.265493
802.000000	72.249246
801.000000	72.270290
800.000000	72.184448
799.000000	72.171910
798.000000	72.331368
797.000000	72.061560
796.000000	71.999494
795.000000	72.140855
794.000000	72.189982
793.000000	72.251338
792.000000	72.324989
791.000000	72.233581
790.000000	72.090952
789.000000	72.176751
788.000000	72.247546
787.000000	72.129565
786.000000	72.065487
785.000000	71.924689
784.000000	71.960093
783.000000	72.115826
782.000000	72.109154
781.000000	72.008461
780.000000	72.034864
779.000000	72.108461
778.000000	72.183895
777.000000	72.176288
776.000000	71.983227
775.000000	72.015848
774.000000	72.051460
773.000000	71.952143
772.000000	71.941348
771.000000	71.971586
770.000000	72.025508
769.000000	72.082565
768.000000	72.114017
767.000000	72.031367
766.000000	71.899802
765.000000	72.052561
764.000000	71.942799
763.000000	71.749987
762.000000	71.834056
761.000000	71.934862
760.000000	71.873563
759.000000	71.942175
758.000000	71.932690
757.000000	71.911627
756.000000	71.873235
755.000000	71.708936
754.000000	71.910388
753.000000	71.917709
752.000000	71.866163
751.000000	71.916068
750.000000	71.879242
749.000000	71.825964
748.000000	71.875294
747.000000	71.855580
746.000000	71.849469
745.000000	71.855510
744.000000	71.854032
743.000000	71.778067
742.000000	71.710720
741.000000	71.590881
740.000000	71.679867
739.000000	71.682347
738.000000	71.606100
737.000000	71.604606
736.000000	71.715003
735.000000	71.648357
734.000000	71.581240
733.000000	71.589000
732.000000	71.525043
731.000000	71.595629
730.000000	71.541998
729.000000	71.607269
728.000000	71.608286
727.000000	71.579602
726.000000	71.524590
725.000000	71.529572
724.000000	71.589317
723.000000	71.489942
722.000000	71.603116
721.000000	71.500877
720.000000	71.472359
719.000000	71.558787
718.000000	71.481148
717.000000	71.475572
716.000000	71.583173
715.000000	71.500197
714.000000	71.446750
713.000000	71.438236
712.000000	71.422070
711.000000	71.379756
710.000000	71.311011
709.000000	71.404099
708.000000	71.384398
707.000000	71.393852
706.000000	71.383084
705.000000	71.345322
704.000000	71.327807
703.000000	71.278922
702.000000	71.264328
701.000000	71.249183
700.000000	71.149186
699.000000	71.269594
698.000000	71.339163
697.000000	71.251078
696.000000	71.243634
695.000000	71.230125
694.000000	71.229653
693.000000	71.129258
692.000000	71.222887
691.000000	71.152780
690.000000	71.062561
689.000000	70.929728
688.000000	70.868751
687.000000	71.008642
686.000000	70.960591
685.000000	71.002559
684.000000	70.942391
683.000000	70.845863
682.000000	70.932502
681.000000	70.900623
680.000000	70.890494
679.000000	70.778617
678.000000	70.892054
677.000000	70.919858
676.000000	70.793732
675.000000	70.863881
674.000000	70.804713
673.000000	70.739036
672.000000	70.703290
671.000000	70.758887
670.000000	70.714812
669.000000	70.750419
668.000000	70.677853
667.000000	70.654442
666.000000	70.689002
665.000000	70.594250
664.000000	70.650824
663.000000	70.622388
662.000000	70.584583
661.000000	70.528362
660.000000	70.585731
659.000000	70.500257
658.000000	70.520908
657.000000	70.540773
656.000000	70.586799
655.000000	70.514536
654.000000	70.591272
653.000000	70.509876
652.000000	70.399275
651.000000	70.457001
650.000000	70.468481
649.000000	70.434766
648.000000	70.419168
647.000000	70.383783
646.000000	70.323982
645.000000	70.346220
644.000000	70.327925
643.000000	70.285862
642.000000	70.222014
641.000000	70.239823
640.000000	70.321958
639.000000	70.346225
638.000000	70.328174
637.000000	70.204036
636.000000	70.183565
635.000000	70.186629
634.000000	70.180884
633.000000	70.162541
632.000000	70.105632
631.000000	70.145635
630.000000	70.082974
629.000000	70.142073
628.000000	70.040243
627.000000	70.129292
626.000000	69.998251
625.000000	70.092654
624.000000	70.064455
623.000000	69.976951
622.000000	69.908367
621.000000	69.933252
620.000000	69.972367
619.000000	69.913698
618.000000	69.902058
617.000000	69.901418
616.000000	69.811035
615.000000	69.810437
614.000000	69.812381
613.000000	69.838829
612.000000	69.785487
611.000000	69.798769
610.000000	69.718874
609.000000	69.762540
608.000000	69.759998
607.000000	69.733664
606.000000	69.675203
605.000000	69.635017
604.000000	69.581281
603.000000	69.582630
602.000000	69.583780
601.000000	69.575683
600.000000	69.547959
599.000000	69.507390
598.000000	69.501371
597.000000	69.470991
596.000000	69.487616
595.000000	69.475531
594.000000	69.457145
593.000000	69.435112
592.000000	69.427834
591.000000	69.422184
590.000000	69.339470
589.000000	69.326673
588.000000	69.329237
587.000000	69.318755
586.000000	69.261757
585.000000	69.248141
584.000000	69.233287
583.000000	69.238333
582.000000	69.234623
581.000000	69.149180
580.000000	69.211840
579.000000	69.147684
578.000000	69.115031
577.000000	69.070132
576.000000	69.059196
575.000000	69.098358
574.000000	69.058630
573.000000	69.044333
572.000000	68.979431
571.000000	68.962405
570.000000	68.918258
569.000000	68.926018
568.000000	68.925896
567.000000	68.953260
566.000000	68.930827
565.000000	68.893078
564.000000	68.830904
563.000000	68.781220
562.000000	68.728494
561.000000	68.707672
560.000000	68.728051
559.000000	68.744949
558.000000	68.666895
557.000000	68.667784
556.000000	68.658853
555.000000	68.647590
554.000000	68.584971
553.000000	68.518792
552.000000	68.569505
551.000000	68.545834
550.000000	68.514510
549.000000	68.504763
548.000000	68.462940
547.000000	68.396462
546.000000	68.388345
545.000000	68.412244
544.000000	68.362953
543.000000	68.326869
542.000000	68.305889
541.000000	68.268584
540.000000	68.241348
539.000000	68.236623
538.000000	68.173383
537.000000	68.153297
536.000000	68.161884
535.000000	68.114644
534.000000	68.078418
533.000000	68.051615
532.000000	68.016545
531.000000	68.005099
530.000000	67.963461
529.000000	67.921080
528.000000	67.914961
527.000000	67.888812
526.000000	67.873326
525.000000	67.858242
524.000000	67.809521
523.000000	67.769084
522.000000	67.731865
521.000000	67.682722
520.000000	67.662721
519.000000	67.634592
518.000000	67.612159
517.000000	67.580762
516.000000	67.536301
515.000000	67.498972
514.000000	67.462541
513.000000	67.424409
512.000000	67.395908
511.000000	67.355782
510.000000	67.325410
509.000000	67.282700
508.000000	67.242677
507.000000	67.213893
506.000000	67.180117
505.000000	67.138828
504.000000	67.071496
503.000000	67.029106
502.000000	66.983862
501.000000	66.916626
500.000000	66.863664
499.000000	66.846048
498.000000	66.778431
497.000000	66.706269
496.000000	66.655701
495.000000	66.577490
494.000000	66.527290
493.000000	66.469543
492.000000	66.439605
491.000000	66.393698
490.000000	66.332011
489.000000	66.307963
488.000000	66.273226
487.000000	66.197921
486.000000	66.125274
485.000000	66.019145
484.000000	65.986498
483.000000	65.955637
482.000000	65.887317
481.000000	65.883519
480.000000	65.845790
479.000000	65.799813
478.000000	65.751897
477.000000	65.688552
476.000000	65.631866
475.000000	65.558912
474.000000	65.513427
473.000000	65.495082
472.000000	65.450145
471.000000	65.358942
470.000000	65.316763
469.000000	65.270629
468.000000	65.214380
467.000000	65.159476
466.000000	65.078287
465.000000	65.036519
464.000000	64.980972
463.000000	64.908199
462.000000	64.873251
461.000000	64.770380
460.000000	64.719367
459.000000	64.681354
458.000000	64.553192
457.000000	64.535790
456.000000	64.431217
455.000000	64.383153
454.000000	64.303695
453.000000	64.210979
452.000000	64.090016
451.000000	64.017810
450.000000	63.968502
449.000000	63.898912
448.000000	63.823052
447.000000	63.681262
446.000000	63.622942
445.000000	63.559948
444.000000	63.448937
443.000000	63.351253
442.000000	63.328014
441.000000	63.196927
440.000000	63.179705
439.000000	63.082969
438.000000	62.946060
437.000000	62.881107
436.000000	62.832507
435.000000	62.668523
434.000000	62.700238
433.000000	62.549829
432.000000	62.460440
431.000000	62.412939
430.000000	62.337397
429.000000	62.223332
428.000000	62.086207
427.000000	62.037255
426.000000	61.882480
425.000000	61.786167
424.000000	61.727141
423.000000	61.595360
422.000000	61.529843
421.000000	61.469217
420.000000	61.327856
419.000000	61.218959
418.000000	61.119026
417.000000	60.940107
416.000000	60.852460
415.000000	60.789864
414.000000	60.614707
413.000000	60.524904
412.000000	60.372899
411.000000	60.314968
410.000000	60.137130
409.000000	59.944972
408.000000	59.814944
407.000000	59.646794
406.000000	59.596808
405.000000	59.409190
404.000000	59.247096
403.000000	59.056808
402.000000	58.862336
401.000000	58.678273
400.000000	58.556717
399.000000	58.471463
398.000000	58.263176
397.000000	58.018307
396.000000	57.899001
395.000000	57.528331
394.000000	57.408437
393.000000	57.213789
392.000000	56.940335
391.000000	56.708020
390.000000	56.413076
389.000000	56.295849
388.000000	55.947036
387.000000	55.736389
386.000000	55.347713
385.000000	55.210780
384.000000	54.861957
383.000000	54.578548
382.000000	54.236990
381.000000	53.995535
380.000000	53.733647
379.000000	53.093622
378.000000	52.911620
377.000000	52.225320
376.000000	51.992077
375.000000	51.666128
374.000000	51.154628
373.000000	50.616856
372.000000	49.992469
371.000000	49.470588
370.000000	48.645992
369.000000	47.991179
368.000000	47.238065
367.000000	46.114181
366.000000	45.155729
365.000000	43.833538
364.000000	42.523771
363.000000	41.006247
362.000000	39.335422
361.000000	37.470113
360.000000	35.489765
359.000000	33.159247
358.000000	30.776067
357.000000	28.147175
356.000000	25.366339
355.000000	22.476915
354.000000	19.573965
353.000000	16.575501
352.000000	13.696042
351.000000	10.947366
350.000000	8.454006
349.000000	6.262330
348.000000	4.413369
347.000000	2.917368
346.000000	1.821440
345.000000	1.042592
344.000000	0.553038
343.000000	0.274002
342.000000	0.127612
341.000000	0.047890
340.000000	0.032947
339.000000	0.033256
338.000000	0.035400
337.000000	0.020636
336.000000	0.028896
335.000000	0.037475
334.000000	0.037617
333.000000	0.037658
332.000000	0.030829
331.000000	0.033862
330.000000	0.038197
329.000000	0.034655
328.000000	0.032388
327.000000	0.038965
326.000000	0.049616
325.000000	0.042900
