PE UV       SUBTECH     SPECTRUM    ASCII       PEDS        4.00        
   -1
100% or 0 Absorbance Baseline.Correction.Raw.asc
18/05/22
14:10:45.00
18/05/22
14:10:45.00
Administrator

325.000000
1
Lambda 850
850L1710193
PerkinElmer UV WinLab 6.4.0.973 / 2.02.06 Lambda 800 UV/VIS, Jan 28 2016 16:58:34

0
0
2
0
0
UV/VIS
0
1
1
RBeamAtt,SBeamAtt,60mm sphere
0
0
0
0
Fix
 
0
0.16
0
0
0
 
 
 
0
 
0
319.2
0
Front
100
 
S:100 R:100
 
0
0
0
 
0
 
 
 
0
 
 
0
0
0
0
0
 
 
 
 
0
0


0
0
#HDR
-1
-1
#GR
nm
%T
1.0
0.0
900.000000
-1.000000
576
8
120.164000
101.883500
#DATA
900.000000	120.164000
899.000000	114.099400
898.000000	114.991100
897.000000	111.803600
896.000000	114.026200
895.000000	114.450300
894.000000	117.947900
893.000000	117.685800
892.000000	113.690900
891.000000	114.410900
890.000000	113.194800
889.000000	114.578700
888.000000	112.277900
887.000000	113.125600
886.000000	114.038000
885.000000	114.453700
884.000000	114.086300
883.000000	114.191500
882.000000	114.533600
881.000000	117.172800
880.000000	113.862900
879.000000	114.273400
878.000000	116.382400
877.000000	115.760800
876.000000	114.654800
875.000000	115.737400
874.000000	115.768600
873.000000	116.112200
872.000000	115.399800
871.000000	116.153200
870.000000	114.890700
869.000000	116.738800
868.000000	113.930000
867.000000	117.517600
866.000000	116.749000
865.000000	117.328500
864.000000	116.523600
863.000000	116.321700
862.000000	116.520200
861.000000	116.305800
860.000000	118.300400
859.000000	116.301800
858.000000	116.958300
857.000000	117.802600
856.000000	117.508600
855.000000	117.487300
854.000000	117.342700
853.000000	117.884500
852.000000	117.342900
851.000000	117.148700
850.000000	117.552900
849.000000	117.819500
848.000000	118.221100
847.000000	118.144300
846.000000	118.321700
845.000000	118.213100
844.000000	118.259800
843.000000	118.414500
842.000000	118.400000
841.000000	118.108500
840.000000	118.364100
839.000000	118.410700
838.000000	118.526200
837.000000	118.720800
836.000000	118.761300
835.000000	118.783900
834.000000	118.987000
833.000000	118.993400
832.000000	119.230800
831.000000	118.907000
830.000000	119.055500
829.000000	119.183100
828.000000	119.452400
827.000000	119.218200
826.000000	119.091300
825.000000	118.986000
824.000000	119.228300
823.000000	119.328800
822.000000	119.308200
821.000000	119.270800
820.000000	119.359100
819.000000	119.345300
818.000000	119.328500
817.000000	119.434600
816.000000	119.537600
815.000000	119.321700
814.000000	119.313300
813.000000	119.295400
812.000000	119.317700
811.000000	119.228800
810.000000	119.282000
809.000000	119.383500
808.000000	119.195200
807.000000	119.211900
806.000000	119.224100
805.000000	119.221700
804.000000	119.279000
803.000000	119.138800
802.000000	119.243700
801.000000	119.211800
800.000000	118.955200
799.000000	118.938500
798.000000	119.145400
797.000000	119.035300
796.000000	118.931400
795.000000	118.884300
794.000000	118.779600
793.000000	118.788000
792.000000	118.754400
791.000000	118.727700
790.000000	118.771300
789.000000	118.553600
788.000000	118.442600
787.000000	118.603700
786.000000	118.500400
785.000000	118.458100
784.000000	118.418700
783.000000	118.495400
782.000000	118.445900
781.000000	118.344700
780.000000	118.446000
779.000000	118.531200
778.000000	118.315300
777.000000	118.111600
776.000000	118.287800
775.000000	118.303000
774.000000	118.157900
773.000000	118.043600
772.000000	118.106400
771.000000	118.039400
770.000000	117.826100
769.000000	117.870800
768.000000	117.865600
767.000000	117.923800
766.000000	117.845700
765.000000	117.746900
764.000000	117.844700
763.000000	117.701100
762.000000	117.579900
761.000000	117.534000
760.000000	117.515600
759.000000	117.560000
758.000000	117.398100
757.000000	117.312400
756.000000	117.312800
755.000000	117.226800
754.000000	117.179700
753.000000	117.157800
752.000000	117.098200
751.000000	117.068400
750.000000	117.094600
749.000000	117.142400
748.000000	117.048800
747.000000	116.992500
746.000000	116.964400
745.000000	116.910900
744.000000	116.874200
743.000000	116.850300
742.000000	116.808600
741.000000	116.645700
740.000000	116.602600
739.000000	116.711200
738.000000	116.769800
737.000000	116.655300
736.000000	116.562200
735.000000	116.539800
734.000000	116.549600
733.000000	116.470100
732.000000	116.459300
731.000000	116.368400
730.000000	116.306200
729.000000	116.277900
728.000000	116.357700
727.000000	116.284100
726.000000	116.140500
725.000000	116.163900
724.000000	116.156100
723.000000	116.014300
722.000000	115.950500
721.000000	116.060900
720.000000	116.092200
719.000000	115.971100
718.000000	115.988900
717.000000	115.958000
716.000000	115.958200
715.000000	115.911100
714.000000	115.893500
713.000000	115.912700
712.000000	115.814600
711.000000	115.778500
710.000000	115.767500
709.000000	115.707100
708.000000	115.745700
707.000000	115.639400
706.000000	115.630700
705.000000	115.648800
704.000000	115.600100
703.000000	115.553000
702.000000	115.505200
701.000000	115.418200
700.000000	115.360000
699.000000	115.355600
698.000000	115.433300
697.000000	115.462600
696.000000	115.413500
695.000000	115.274600
694.000000	115.253600
693.000000	115.222900
692.000000	115.292400
691.000000	115.335800
690.000000	115.307000
689.000000	115.357400
688.000000	115.255000
687.000000	115.225900
686.000000	115.292700
685.000000	115.231700
684.000000	115.192600
683.000000	115.223900
682.000000	115.209400
681.000000	115.204700
680.000000	115.159100
679.000000	115.098800
678.000000	115.179300
677.000000	115.076900
676.000000	115.040000
675.000000	114.889000
674.000000	114.936900
673.000000	114.942400
672.000000	114.970500
671.000000	114.951700
670.000000	114.867700
669.000000	114.878200
668.000000	114.783800
667.000000	114.832400
666.000000	114.772400
665.000000	114.846500
664.000000	114.750600
663.000000	114.772900
662.000000	114.759600
661.000000	114.904000
660.000000	114.742800
659.000000	114.687400
658.000000	114.731700
657.000000	114.790100
656.000000	114.732900
655.000000	114.656000
654.000000	114.694600
653.000000	114.687000
652.000000	114.656100
651.000000	114.543000
650.000000	114.612300
649.000000	114.574900
648.000000	114.557000
647.000000	114.569700
646.000000	114.475000
645.000000	114.581000
644.000000	114.351900
643.000000	114.384400
642.000000	114.430800
641.000000	114.481700
640.000000	114.415000
639.000000	114.451000
638.000000	114.285000
637.000000	114.300200
636.000000	114.452400
635.000000	114.237300
634.000000	114.401300
633.000000	114.364300
632.000000	114.245200
631.000000	114.320900
630.000000	114.289700
629.000000	114.283000
628.000000	114.396500
627.000000	114.250200
626.000000	114.225200
625.000000	114.233600
624.000000	114.268000
623.000000	114.150100
622.000000	114.229600
621.000000	114.235900
620.000000	114.171900
619.000000	114.085100
618.000000	114.174300
617.000000	114.125400
616.000000	114.133600
615.000000	114.211100
614.000000	114.101900
613.000000	114.084100
612.000000	114.120800
611.000000	114.064800
610.000000	114.008000
609.000000	114.088700
608.000000	114.048200
607.000000	114.042600
606.000000	113.983000
605.000000	113.982700
604.000000	114.076600
603.000000	114.016400
602.000000	114.066400
601.000000	114.030800
600.000000	114.005500
599.000000	114.008000
598.000000	114.048200
597.000000	113.975600
596.000000	113.970300
595.000000	113.925300
594.000000	113.995600
593.000000	113.993000
592.000000	113.986900
591.000000	113.896400
590.000000	113.991100
589.000000	113.998500
588.000000	113.992000
587.000000	114.010200
586.000000	114.001300
585.000000	114.010500
584.000000	113.944900
583.000000	113.937900
582.000000	113.888400
581.000000	113.881600
580.000000	113.917900
579.000000	113.948700
578.000000	113.922100
577.000000	113.978600
576.000000	113.958400
575.000000	113.971300
574.000000	113.979900
573.000000	113.997100
572.000000	113.992900
571.000000	113.944000
570.000000	113.958100
569.000000	113.938000
568.000000	113.908000
567.000000	113.946800
566.000000	113.914500
565.000000	113.919400
564.000000	113.890700
563.000000	113.843100
562.000000	114.028700
561.000000	114.116900
560.000000	114.139600
559.000000	114.179400
558.000000	114.205500
557.000000	114.222000
556.000000	114.207500
555.000000	114.189300
554.000000	114.189800
553.000000	114.170000
552.000000	114.209300
551.000000	114.276500
550.000000	114.260200
549.000000	114.201500
548.000000	114.257400
547.000000	114.268000
546.000000	114.301000
545.000000	114.317900
544.000000	114.295300
543.000000	114.319400
542.000000	114.347500
541.000000	114.340800
540.000000	114.333400
539.000000	114.394400
538.000000	114.403700
537.000000	114.416300
536.000000	114.420100
535.000000	114.454800
534.000000	114.513900
533.000000	114.521200
532.000000	114.533900
531.000000	114.566300
530.000000	114.604900
529.000000	114.615100
528.000000	114.655800
527.000000	114.689200
526.000000	114.697200
525.000000	114.729100
524.000000	114.755200
523.000000	114.784600
522.000000	114.783600
521.000000	114.743200
520.000000	114.722800
519.000000	114.723100
518.000000	114.707800
517.000000	114.670900
516.000000	114.608200
515.000000	114.522900
514.000000	114.415000
513.000000	114.271500
512.000000	114.109000
511.000000	113.953100
510.000000	113.792500
509.000000	113.594800
508.000000	113.397000
507.000000	113.229300
506.000000	113.036700
505.000000	112.838600
504.000000	112.670700
503.000000	112.511200
502.000000	112.404200
501.000000	112.323300
500.000000	112.263200
499.000000	112.278700
498.000000	112.312900
497.000000	112.331200
496.000000	112.361200
495.000000	112.412600
494.000000	112.530100
493.000000	112.615700
492.000000	112.642100
491.000000	112.727500
490.000000	112.833300
489.000000	112.921000
488.000000	113.014800
487.000000	113.097800
486.000000	113.205500
485.000000	113.327500
484.000000	113.486200
483.000000	113.657300
482.000000	113.973300
481.000000	114.259700
480.000000	114.394600
479.000000	114.353100
478.000000	114.260600
477.000000	114.157200
476.000000	114.095600
475.000000	114.063300
474.000000	114.045000
473.000000	114.030400
472.000000	113.986500
471.000000	113.952900
470.000000	113.895500
469.000000	113.829100
468.000000	113.720200
467.000000	113.586800
466.000000	113.449800
465.000000	113.289100
464.000000	113.150500
463.000000	113.007500
462.000000	112.892700
461.000000	112.698300
460.000000	112.619900
459.000000	112.575800
458.000000	112.470100
457.000000	112.395100
456.000000	112.387900
455.000000	112.387800
454.000000	112.352200
453.000000	112.396000
452.000000	112.424900
451.000000	112.444700
450.000000	112.404800
449.000000	112.453500
448.000000	112.422600
447.000000	112.354600
446.000000	112.352400
445.000000	112.450200
444.000000	112.678900
443.000000	112.838900
442.000000	112.896600
441.000000	112.812500
440.000000	112.686300
439.000000	112.765800
438.000000	112.738300
437.000000	112.657900
436.000000	112.637800
435.000000	112.641000
434.000000	112.574400
433.000000	112.527600
432.000000	112.482300
431.000000	112.511800
430.000000	112.455700
429.000000	112.368800
428.000000	112.410300
427.000000	112.329600
426.000000	112.354700
425.000000	112.279500
424.000000	112.145900
423.000000	112.070100
422.000000	111.990300
421.000000	112.031300
420.000000	111.943400
419.000000	111.804400
418.000000	111.762100
417.000000	111.713100
416.000000	111.592000
415.000000	111.398300
414.000000	111.270700
413.000000	111.163700
412.000000	110.958600
411.000000	110.712900
410.000000	110.489500
409.000000	110.310400
408.000000	110.081100
407.000000	109.766200
406.000000	109.479700
405.000000	109.216800
404.000000	108.977900
403.000000	108.623900
402.000000	108.378800
401.000000	108.224500
400.000000	107.957300
399.000000	107.628300
398.000000	107.426500
397.000000	107.271100
396.000000	107.033400
395.000000	106.775300
394.000000	106.590600
393.000000	106.408200
392.000000	106.198500
391.000000	106.084300
390.000000	105.888600
389.000000	105.769800
388.000000	105.673900
387.000000	105.507300
386.000000	105.450800
385.000000	105.298700
384.000000	105.249700
383.000000	105.191600
382.000000	105.122100
381.000000	105.043400
380.000000	104.971600
379.000000	105.550400
378.000000	106.831000
377.000000	106.563200
376.000000	106.241000
375.000000	106.125700
374.000000	105.625700
373.000000	105.611400
372.000000	105.266700
371.000000	105.249800
370.000000	105.140700
369.000000	104.923700
368.000000	104.780000
367.000000	104.659900
366.000000	104.637900
365.000000	104.448800
364.000000	104.411800
363.000000	104.284200
362.000000	104.084800
361.000000	104.059200
360.000000	103.995200
359.000000	103.906700
358.000000	103.887400
357.000000	103.786000
356.000000	103.847600
355.000000	103.698000
354.000000	103.568600
353.000000	103.551400
352.000000	103.462100
351.000000	103.392100
350.000000	103.282100
349.000000	103.225700
348.000000	103.229300
347.000000	103.195700
346.000000	103.097200
345.000000	103.019200
344.000000	102.929000
343.000000	102.982700
342.000000	102.872900
341.000000	102.858700
340.000000	102.927500
339.000000	102.833800
338.000000	102.675300
337.000000	102.695100
336.000000	102.559900
335.000000	102.593400
334.000000	102.506400
333.000000	102.408800
332.000000	102.344900
331.000000	102.296500
330.000000	102.261600
329.000000	102.175200
328.000000	102.120000
327.000000	101.885900
326.000000	101.883500
325.000000	101.924000
