PE UV       SUBTECH     SPECTRUM    ASCII       PEDS        4.00        
   -1
J15.Sample.Raw.asc
18/05/22
14:20:13.00
18/05/22
14:20:13.00
Administrator
longitudinal
325.000000
1
Lambda 850
850L1710193
PerkinElmer UV WinLab 6.4.0.973 / 2.02.06 Lambda 800 UV/VIS, Jan 28 2016 16:58:34

0
0
2
0
0
UV/VIS
1
1
1
RBeamAtt,SBeamAtt,60mm sphere
0
0
0
0
Fix
 
0
0.16
0
0
0
 
 
 
0
 
0
319.2
0
Front
100
 
S:100 R:100
 
0
0
0
 
0
 
 
 
0
 
 
0
0
0
0
0
 
 
 
 
0
0


0
0
#HDR
-1
-1
#GR
nm
%T
1.0
0.0
900.000000
-1.000000
576
8
78.253302
0.013635
#DATA
900.000000	74.381762
899.000000	72.695825
898.000000	72.526743
897.000000	77.132847
896.000000	73.787954
895.000000	76.015266
894.000000	70.063732
893.000000	73.339094
892.000000	72.813743
891.000000	74.281297
890.000000	77.282967
889.000000	75.050337
888.000000	76.396424
887.000000	74.640400
886.000000	74.432031
885.000000	78.253302
884.000000	75.683145
883.000000	73.173835
882.000000	75.633089
881.000000	72.350494
880.000000	76.324158
879.000000	75.926769
878.000000	75.031362
877.000000	74.991534
876.000000	76.406744
875.000000	75.493661
874.000000	74.901053
873.000000	74.900656
872.000000	75.521881
871.000000	74.279400
870.000000	75.525608
869.000000	74.617865
868.000000	76.857105
867.000000	74.007468
866.000000	74.677128
865.000000	75.100849
864.000000	75.338043
863.000000	74.726212
862.000000	74.747211
861.000000	75.153862
860.000000	74.101694
859.000000	75.370201
858.000000	74.768956
857.000000	74.261943
856.000000	74.432339
855.000000	74.526694
854.000000	74.998956
853.000000	74.722292
852.000000	75.321387
851.000000	75.417397
850.000000	74.957827
849.000000	74.704697
848.000000	74.444071
847.000000	74.593527
846.000000	74.489210
845.000000	74.555781
844.000000	74.626204
843.000000	74.335322
842.000000	74.240541
841.000000	74.566437
840.000000	74.408710
839.000000	74.283152
838.000000	74.382879
837.000000	74.082048
836.000000	73.970056
835.000000	73.891159
834.000000	73.839327
833.000000	74.063604
832.000000	73.913536
831.000000	73.990850
830.000000	73.872774
829.000000	73.825064
828.000000	73.576839
827.000000	73.707286
826.000000	73.845613
825.000000	73.732120
824.000000	73.582950
823.000000	73.678693
822.000000	73.625870
821.000000	73.604772
820.000000	73.537837
819.000000	73.450400
818.000000	73.375933
817.000000	73.543596
816.000000	73.561708
815.000000	73.567339
814.000000	73.496081
813.000000	73.527227
812.000000	73.517508
811.000000	73.481659
810.000000	73.472779
809.000000	73.414165
808.000000	73.543901
807.000000	73.467582
806.000000	73.491266
805.000000	73.534600
804.000000	73.406886
803.000000	73.354692
802.000000	73.201016
801.000000	73.199717
800.000000	73.328446
799.000000	73.332773
798.000000	73.134003
797.000000	73.052363
796.000000	73.198836
795.000000	73.267959
794.000000	73.286069
793.000000	73.184665
792.000000	73.098765
791.000000	73.081008
790.000000	73.181905
789.000000	73.353150
788.000000	73.335607
787.000000	73.139792
786.000000	73.175534
785.000000	73.260672
784.000000	73.244851
783.000000	73.078617
782.000000	73.108145
781.000000	73.109062
780.000000	73.058271
779.000000	72.980869
778.000000	73.041610
777.000000	73.191118
776.000000	72.963569
775.000000	72.877273
774.000000	73.021778
773.000000	73.043096
772.000000	72.909343
771.000000	72.842966
770.000000	72.936981
769.000000	72.898377
768.000000	72.884964
767.000000	72.877061
766.000000	72.912461
765.000000	72.913342
764.000000	72.823810
763.000000	72.875360
762.000000	72.900385
761.000000	72.889121
760.000000	72.766935
759.000000	72.737326
758.000000	72.898028
757.000000	72.883259
756.000000	72.825727
755.000000	72.841023
754.000000	72.752874
753.000000	72.751451
752.000000	72.747830
751.000000	72.708775
750.000000	72.640241
749.000000	72.633991
748.000000	72.686264
747.000000	72.589354
746.000000	72.547630
745.000000	72.521125
744.000000	72.618850
743.000000	72.647653
742.000000	72.586008
741.000000	72.649570
740.000000	72.702410
739.000000	72.578296
738.000000	72.502222
737.000000	72.549640
736.000000	72.616594
735.000000	72.493775
734.000000	72.394328
733.000000	72.410516
732.000000	72.329131
731.000000	72.346788
730.000000	72.404223
729.000000	72.376866
728.000000	72.246186
727.000000	72.295267
726.000000	72.344187
725.000000	72.255666
724.000000	72.268180
723.000000	72.334100
722.000000	72.336902
721.000000	72.219929
720.000000	72.107687
719.000000	72.182639
718.000000	72.128626
717.000000	72.111799
716.000000	72.104258
715.000000	72.142357
714.000000	72.161338
713.000000	72.064493
712.000000	72.135810
711.000000	72.038850
710.000000	71.986611
709.000000	72.012867
708.000000	71.978311
707.000000	72.063847
706.000000	72.086998
705.000000	71.910993
704.000000	71.936529
703.000000	72.005487
702.000000	71.950440
701.000000	71.917167
700.000000	71.926578
699.000000	71.942671
698.000000	71.840881
697.000000	71.729980
696.000000	71.719340
695.000000	71.816168
694.000000	71.823006
693.000000	71.776531
692.000000	71.686252
691.000000	71.699507
690.000000	71.532778
689.000000	71.573735
688.000000	71.535985
687.000000	71.610983
686.000000	71.547548
685.000000	71.499943
684.000000	71.465789
683.000000	71.494108
682.000000	71.434362
681.000000	71.372522
680.000000	71.409641
679.000000	71.375288
678.000000	71.329484
677.000000	71.322742
676.000000	71.374652
675.000000	71.413016
674.000000	71.384299
673.000000	71.299625
672.000000	71.245493
671.000000	71.260451
670.000000	71.216887
669.000000	71.151359
668.000000	71.105592
667.000000	71.144990
666.000000	71.145850
665.000000	71.123108
664.000000	71.160587
663.000000	71.041248
662.000000	71.054622
661.000000	70.870901
660.000000	71.036963
659.000000	70.997773
658.000000	70.909871
657.000000	70.857417
656.000000	70.863458
655.000000	70.876535
654.000000	70.724515
653.000000	70.786052
652.000000	70.768760
651.000000	70.820129
650.000000	70.724172
649.000000	70.690701
648.000000	70.698953
647.000000	70.611601
646.000000	70.672112
645.000000	70.572084
644.000000	70.666775
643.000000	70.661384
642.000000	70.524631
641.000000	70.504456
640.000000	70.525893
639.000000	70.430665
638.000000	70.506803
637.000000	70.388853
636.000000	70.356410
635.000000	70.378239
634.000000	70.274638
633.000000	70.249894
632.000000	70.316477
631.000000	70.249272
630.000000	70.261800
629.000000	70.161529
628.000000	70.055028
627.000000	70.106661
626.000000	70.077531
625.000000	70.029133
624.000000	69.990286
623.000000	69.996610
622.000000	69.917867
621.000000	69.911560
620.000000	69.879541
619.000000	69.942701
618.000000	69.823507
617.000000	69.806196
616.000000	69.739674
615.000000	69.648397
614.000000	69.728988
613.000000	69.756960
612.000000	69.660921
611.000000	69.622706
610.000000	69.603624
609.000000	69.531689
608.000000	69.490794
607.000000	69.445365
606.000000	69.526684
605.000000	69.440801
604.000000	69.340513
603.000000	69.371073
602.000000	69.291921
601.000000	69.254096
600.000000	69.249554
599.000000	69.219178
598.000000	69.169965
597.000000	69.179895
596.000000	69.155122
595.000000	69.160406
594.000000	69.062490
593.000000	69.037134
592.000000	68.981874
591.000000	68.996825
590.000000	68.946698
589.000000	68.898977
588.000000	68.857288
587.000000	68.805774
586.000000	68.794566
585.000000	68.753755
584.000000	68.749457
583.000000	68.705058
582.000000	68.675475
581.000000	68.676503
580.000000	68.624158
579.000000	68.563222
578.000000	68.529109
577.000000	68.480838
576.000000	68.439624
575.000000	68.408538
574.000000	68.325029
573.000000	68.321124
572.000000	68.330045
571.000000	68.272572
570.000000	68.225163
569.000000	68.204462
568.000000	68.171946
567.000000	68.123633
566.000000	68.092210
565.000000	68.036524
564.000000	68.042167
563.000000	68.039082
562.000000	67.970257
561.000000	67.954177
560.000000	67.953453
559.000000	67.894033
558.000000	67.835787
557.000000	67.756474
556.000000	67.753169
555.000000	67.743212
554.000000	67.701844
553.000000	67.697907
552.000000	67.657187
551.000000	67.561397
550.000000	67.553706
549.000000	67.545523
548.000000	67.475630
547.000000	67.438653
546.000000	67.399935
545.000000	67.379387
544.000000	67.362525
543.000000	67.335465
542.000000	67.320842
541.000000	67.291116
540.000000	67.267045
539.000000	67.223920
538.000000	67.177111
537.000000	67.119195
536.000000	67.103507
535.000000	67.077396
534.000000	67.024527
533.000000	67.017984
532.000000	66.990123
531.000000	66.923607
530.000000	66.896616
529.000000	66.876616
528.000000	66.841625
527.000000	66.809429
526.000000	66.759956
525.000000	66.707052
524.000000	66.669659
523.000000	66.628973
522.000000	66.618838
521.000000	66.613882
520.000000	66.574386
519.000000	66.532547
518.000000	66.506027
517.000000	66.452256
516.000000	66.406330
515.000000	66.381047
514.000000	66.355548
513.000000	66.347602
512.000000	66.332366
511.000000	66.276389
510.000000	66.224488
509.000000	66.211570
508.000000	66.171945
507.000000	66.102413
506.000000	66.071108
505.000000	66.063032
504.000000	66.011306
503.000000	65.959033
502.000000	65.918889
501.000000	65.902444
500.000000	65.881696
499.000000	65.809633
498.000000	65.725219
497.000000	65.693948
496.000000	65.653090
495.000000	65.584018
494.000000	65.517315
493.000000	65.454905
492.000000	65.415240
491.000000	65.387150
490.000000	65.339576
489.000000	65.258455
488.000000	65.201814
487.000000	65.181286
486.000000	65.116889
485.000000	65.065496
484.000000	65.007375
483.000000	64.997849
482.000000	64.946439
481.000000	64.863727
480.000000	64.804982
479.000000	64.787225
478.000000	64.763794
477.000000	64.743617
476.000000	64.696623
475.000000	64.632884
474.000000	64.575738
473.000000	64.530687
472.000000	64.468863
471.000000	64.404065
470.000000	64.376819
469.000000	64.350241
468.000000	64.303703
467.000000	64.239419
466.000000	64.186980
465.000000	64.140063
464.000000	64.073071
463.000000	64.002035
462.000000	63.920342
461.000000	63.909748
460.000000	63.788371
459.000000	63.720800
458.000000	63.674523
457.000000	63.640586
456.000000	63.551948
455.000000	63.455197
454.000000	63.413801
453.000000	63.303943
452.000000	63.192940
451.000000	63.111289
450.000000	63.068748
449.000000	62.949664
448.000000	62.896962
447.000000	62.833297
446.000000	62.743920
445.000000	62.670053
444.000000	62.535311
443.000000	62.414469
442.000000	62.357325
441.000000	62.262693
440.000000	62.201173
439.000000	62.049930
438.000000	61.960132
437.000000	61.876974
436.000000	61.804297
435.000000	61.619659
434.000000	61.559822
433.000000	61.486071
432.000000	61.414818
431.000000	61.279350
430.000000	61.132428
429.000000	61.047818
428.000000	60.919329
427.000000	60.837037
426.000000	60.673741
425.000000	60.510245
424.000000	60.435914
423.000000	60.326082
422.000000	60.227805
421.000000	59.996090
420.000000	59.881422
419.000000	59.806591
418.000000	59.673986
417.000000	59.503944
416.000000	59.284626
415.000000	59.139861
414.000000	59.048698
413.000000	58.831705
412.000000	58.653408
411.000000	58.505197
410.000000	58.371429
409.000000	58.193878
408.000000	57.925384
407.000000	57.848227
406.000000	57.698733
405.000000	57.523842
404.000000	57.283633
403.000000	57.122051
402.000000	56.907901
401.000000	56.687349
400.000000	56.543559
399.000000	56.362964
398.000000	56.112784
397.000000	55.863322
396.000000	55.676172
395.000000	55.528666
394.000000	55.305440
393.000000	55.097539
392.000000	54.891830
391.000000	54.596203
390.000000	54.406140
389.000000	54.229941
388.000000	53.910284
387.000000	53.652307
386.000000	53.377689
385.000000	53.096477
384.000000	52.838820
383.000000	52.555812
382.000000	52.179608
381.000000	51.901309
380.000000	51.573473
379.000000	51.094264
378.000000	50.766912
377.000000	50.285089
376.000000	49.894015
375.000000	49.308980
374.000000	49.092124
373.000000	48.376217
372.000000	47.795837
371.000000	47.096717
370.000000	46.229101
369.000000	45.476189
368.000000	44.491697
367.000000	43.417393
366.000000	42.144672
365.000000	40.741588
364.000000	39.190590
363.000000	37.397420
362.000000	35.582621
361.000000	33.408195
360.000000	31.090473
359.000000	28.671106
358.000000	26.006137
357.000000	23.137514
356.000000	20.306006
355.000000	17.366005
354.000000	14.535680
353.000000	11.728765
352.000000	9.189452
351.000000	6.891049
350.000000	4.978501
349.000000	3.396925
348.000000	2.190366
347.000000	1.307225
346.000000	0.732901
345.000000	0.374979
344.000000	0.179347
343.000000	0.079916
342.000000	0.040341
341.000000	0.024014
340.000000	0.025552
339.000000	0.014878
338.000000	0.013635
337.000000	0.023662
336.000000	0.023498
335.000000	0.020567
334.000000	0.021560
333.000000	0.026560
332.000000	0.021887
331.000000	0.022875
330.000000	0.026892
329.000000	0.036506
328.000000	0.022327
327.000000	0.029837
326.000000	0.034549
325.000000	0.042483
