PE UV       SUBTECH     SPECTRUM    ASCII       PEDS        4.00        
   -1
J23.Sample.Raw.asc
18/05/22
14:24:38.00
18/05/22
14:24:38.00
Administrator
longitudinal
325.000000
1
Lambda 850
850L1710193
PerkinElmer UV WinLab 6.4.0.973 / 2.02.06 Lambda 800 UV/VIS, Jan 28 2016 16:58:34

0
0
2
0
0
UV/VIS
1
1
1
RBeamAtt,SBeamAtt,60mm sphere
0
0
0
0
Fix
 
0
0.16
0
0
0
 
 
 
0
 
0
319.2
0
Front
100
 
S:100 R:100
 
0
0
0
 
0
 
 
 
0
 
 
0
0
0
0
0
 
 
 
 
0
0


0
0
#HDR
-1
-1
#GR
nm
%T
1.0
0.0
900.000000
-1.000000
576
8
73.605859
0.008970
#DATA
900.000000	67.660780
899.000000	70.000894
898.000000	68.204235
897.000000	73.605859
896.000000	71.608893
895.000000	72.827332
894.000000	67.465296
893.000000	71.151575
892.000000	72.474930
891.000000	70.461993
890.000000	71.710803
889.000000	72.504052
888.000000	71.972846
887.000000	69.226241
886.000000	72.509602
885.000000	70.815972
884.000000	71.007649
883.000000	72.200208
882.000000	72.063744
881.000000	69.452637
880.000000	70.442875
879.000000	70.823131
878.000000	70.090581
877.000000	70.506078
876.000000	71.157771
875.000000	69.558155
874.000000	68.586819
873.000000	70.191160
872.000000	70.192149
871.000000	69.704838
870.000000	70.420495
869.000000	70.161249
868.000000	71.791802
867.000000	69.124369
866.000000	69.761711
865.000000	69.444167
864.000000	70.827369
863.000000	69.754655
862.000000	69.420066
861.000000	69.831771
860.000000	68.650994
859.000000	69.547505
858.000000	69.092147
857.000000	68.329477
856.000000	68.956485
855.000000	69.214375
854.000000	69.192800
853.000000	68.857738
852.000000	69.296907
851.000000	68.979255
850.000000	68.811063
849.000000	69.000887
848.000000	68.555275
847.000000	68.178236
846.000000	68.235412
845.000000	68.446898
844.000000	68.120612
843.000000	68.020386
842.000000	68.261909
841.000000	68.271632
840.000000	68.102828
839.000000	67.916835
838.000000	67.852340
837.000000	67.473939
836.000000	67.528985
835.000000	67.438769
834.000000	67.383916
833.000000	67.301296
832.000000	67.072183
831.000000	67.181327
830.000000	66.990773
829.000000	66.890020
828.000000	66.742569
827.000000	66.874269
826.000000	66.868277
825.000000	66.955860
824.000000	66.701027
823.000000	66.679041
822.000000	66.710754
821.000000	66.505549
820.000000	66.432723
819.000000	66.478697
818.000000	66.436853
817.000000	66.250484
816.000000	66.156841
815.000000	66.355491
814.000000	66.185245
813.000000	65.975637
812.000000	65.772723
811.000000	65.945812
810.000000	65.900890
809.000000	65.879875
808.000000	65.818590
807.000000	65.703172
806.000000	65.743000
805.000000	65.677389
804.000000	65.469194
803.000000	65.351086
802.000000	65.397417
801.000000	65.446038
800.000000	65.455146
799.000000	65.359493
798.000000	65.240286
797.000000	65.281727
796.000000	65.153021
795.000000	65.128701
794.000000	65.144772
793.000000	65.079553
792.000000	65.072789
791.000000	64.960409
790.000000	64.863818
789.000000	64.869224
788.000000	64.833936
787.000000	64.754978
786.000000	64.739781
785.000000	64.669533
784.000000	64.548673
783.000000	64.352793
782.000000	64.348449
781.000000	64.387083
780.000000	64.259916
779.000000	64.155598
778.000000	64.182654
777.000000	64.193356
776.000000	63.984621
775.000000	63.888574
774.000000	63.871311
773.000000	63.919348
772.000000	63.851239
771.000000	63.739989
770.000000	63.763631
769.000000	63.647740
768.000000	63.626283
767.000000	63.587588
766.000000	63.591714
765.000000	63.490674
764.000000	63.255115
763.000000	63.250216
762.000000	63.262343
761.000000	63.218133
760.000000	63.213224
759.000000	63.116536
758.000000	63.089692
757.000000	63.046788
756.000000	62.848555
755.000000	62.850304
754.000000	62.837846
753.000000	62.751434
752.000000	62.758352
751.000000	62.718718
750.000000	62.612281
749.000000	62.513744
748.000000	62.452157
747.000000	62.415198
746.000000	62.445496
745.000000	62.374167
744.000000	62.304854
743.000000	62.229280
742.000000	62.124963
741.000000	62.227669
740.000000	62.186778
739.000000	61.970659
738.000000	61.877729
737.000000	61.866799
736.000000	61.819698
735.000000	61.858524
734.000000	61.794721
733.000000	61.741597
732.000000	61.676998
731.000000	61.631250
730.000000	61.573330
729.000000	61.533705
728.000000	61.445869
727.000000	61.415017
726.000000	61.417249
725.000000	61.370959
724.000000	61.278573
723.000000	61.280032
722.000000	61.256743
721.000000	61.071213
720.000000	61.021240
719.000000	61.086857
718.000000	61.062481
717.000000	61.027355
716.000000	60.933078
715.000000	60.894168
714.000000	60.773296
713.000000	60.717333
712.000000	60.789918
711.000000	60.676205
710.000000	60.565616
709.000000	60.608554
708.000000	60.534085
707.000000	60.469010
706.000000	60.475289
705.000000	60.448357
704.000000	60.398131
703.000000	60.379393
702.000000	60.260231
701.000000	60.205410
700.000000	60.208911
699.000000	60.196471
698.000000	60.014571
697.000000	59.925898
696.000000	59.926525
695.000000	59.944255
694.000000	59.826591
693.000000	59.812676
692.000000	59.691706
691.000000	59.610199
690.000000	59.469330
689.000000	59.426270
688.000000	59.433864
687.000000	59.423272
686.000000	59.271923
685.000000	59.203153
684.000000	59.174114
683.000000	59.076025
682.000000	59.047526
681.000000	58.907579
680.000000	58.919964
679.000000	58.818771
678.000000	58.626767
677.000000	58.640266
676.000000	58.569541
675.000000	58.576713
674.000000	58.511670
673.000000	58.288847
672.000000	58.220935
671.000000	58.089963
670.000000	58.015526
669.000000	57.897582
668.000000	57.886740
667.000000	57.791703
666.000000	57.698367
665.000000	57.553865
664.000000	57.456170
663.000000	57.433070
662.000000	57.300391
661.000000	57.064506
660.000000	56.962180
659.000000	56.997717
658.000000	56.850722
657.000000	56.670915
656.000000	56.566861
655.000000	56.434988
654.000000	56.343280
653.000000	56.166872
652.000000	56.065661
651.000000	56.007351
650.000000	55.821670
649.000000	55.758984
648.000000	55.636059
647.000000	55.478368
646.000000	55.346058
645.000000	55.142039
644.000000	55.110846
643.000000	54.942195
642.000000	54.852540
641.000000	54.645590
640.000000	54.555696
639.000000	54.357760
638.000000	54.307564
637.000000	54.146449
636.000000	53.929406
635.000000	53.812809
634.000000	53.648516
633.000000	53.499387
632.000000	53.402944
631.000000	53.207594
630.000000	53.058500
629.000000	52.913819
628.000000	52.685003
627.000000	52.608048
626.000000	52.470558
625.000000	52.247325
624.000000	52.087461
623.000000	52.023169
622.000000	51.852234
621.000000	51.618187
620.000000	51.522135
619.000000	51.389796
618.000000	51.177717
617.000000	51.022121
616.000000	50.875115
615.000000	50.719939
614.000000	50.548326
613.000000	50.433321
612.000000	50.281193
611.000000	50.115022
610.000000	49.967546
609.000000	49.766804
608.000000	49.628052
607.000000	49.473618
606.000000	49.303668
605.000000	49.141229
604.000000	48.934926
603.000000	48.835957
602.000000	48.637723
601.000000	48.455417
600.000000	48.336264
599.000000	48.188899
598.000000	48.011279
597.000000	47.865157
596.000000	47.694355
595.000000	47.557303
594.000000	47.380337
593.000000	47.199477
592.000000	47.043827
591.000000	46.929578
590.000000	46.750580
589.000000	46.619561
588.000000	46.462997
587.000000	46.300682
586.000000	46.143684
585.000000	45.976643
584.000000	45.841455
583.000000	45.697086
582.000000	45.585591
581.000000	45.424985
580.000000	45.269181
579.000000	45.097311
578.000000	44.951594
577.000000	44.787092
576.000000	44.640413
575.000000	44.507872
574.000000	44.345977
573.000000	44.224546
572.000000	44.064236
571.000000	43.945184
570.000000	43.800134
569.000000	43.654795
568.000000	43.527233
567.000000	43.363306
566.000000	43.230581
565.000000	43.112499
564.000000	42.960663
563.000000	42.848710
562.000000	42.732312
561.000000	42.591851
560.000000	42.462651
559.000000	42.321820
558.000000	42.203747
557.000000	42.085850
556.000000	41.946107
555.000000	41.866795
554.000000	41.767654
553.000000	41.638434
552.000000	41.508354
551.000000	41.375436
550.000000	41.258636
549.000000	41.161456
548.000000	41.049858
547.000000	40.951885
546.000000	40.833151
545.000000	40.727043
544.000000	40.618731
543.000000	40.515171
542.000000	40.427032
541.000000	40.342030
540.000000	40.266449
539.000000	40.162106
538.000000	40.057883
537.000000	39.947280
536.000000	39.859867
535.000000	39.763295
534.000000	39.652479
533.000000	39.588129
532.000000	39.511970
531.000000	39.423460
530.000000	39.334008
529.000000	39.257829
528.000000	39.159729
527.000000	39.078222
526.000000	39.023882
525.000000	38.957422
524.000000	38.864121
523.000000	38.759990
522.000000	38.675996
521.000000	38.605686
520.000000	38.546392
519.000000	38.472635
518.000000	38.385533
517.000000	38.311725
516.000000	38.249096
515.000000	38.190091
514.000000	38.116331
513.000000	38.041156
512.000000	37.974393
511.000000	37.911913
510.000000	37.841773
509.000000	37.772064
508.000000	37.706729
507.000000	37.637696
506.000000	37.571780
505.000000	37.513138
504.000000	37.457209
503.000000	37.416542
502.000000	37.371468
501.000000	37.328408
500.000000	37.281941
499.000000	37.220951
498.000000	37.158599
497.000000	37.131358
496.000000	37.103822
495.000000	37.061148
494.000000	36.997035
493.000000	36.962608
492.000000	36.939652
491.000000	36.905635
490.000000	36.852596
489.000000	36.826897
488.000000	36.806684
487.000000	36.774721
486.000000	36.695390
485.000000	36.657122
484.000000	36.632648
483.000000	36.585683
482.000000	36.543471
481.000000	36.487756
480.000000	36.449098
479.000000	36.439764
478.000000	36.404237
477.000000	36.371600
476.000000	36.336283
475.000000	36.310628
474.000000	36.276119
473.000000	36.216220
472.000000	36.176916
471.000000	36.147215
470.000000	36.092998
469.000000	36.052029
468.000000	36.018755
467.000000	35.984111
466.000000	35.938715
465.000000	35.918990
464.000000	35.894583
463.000000	35.851249
462.000000	35.802669
461.000000	35.765846
460.000000	35.724415
459.000000	35.686089
458.000000	35.653832
457.000000	35.637853
456.000000	35.605345
455.000000	35.546563
454.000000	35.505669
453.000000	35.431955
452.000000	35.370456
451.000000	35.315760
450.000000	35.285504
449.000000	35.230028
448.000000	35.176913
447.000000	35.140083
446.000000	35.058085
445.000000	35.026527
444.000000	34.954459
443.000000	34.843746
442.000000	34.744182
441.000000	34.720266
440.000000	34.679992
439.000000	34.574224
438.000000	34.484643
437.000000	34.445165
436.000000	34.373541
435.000000	34.282899
434.000000	34.210709
433.000000	34.128072
432.000000	34.061804
431.000000	33.966126
430.000000	33.887389
429.000000	33.834392
428.000000	33.696378
427.000000	33.640287
426.000000	33.518936
425.000000	33.422041
424.000000	33.371171
423.000000	33.269445
422.000000	33.133316
421.000000	33.016130
420.000000	32.869825
419.000000	32.803718
418.000000	32.695610
417.000000	32.566100
416.000000	32.448025
415.000000	32.336310
414.000000	32.169295
413.000000	32.056508
412.000000	31.927584
411.000000	31.841095
410.000000	31.702107
409.000000	31.565383
408.000000	31.374141
407.000000	31.275110
406.000000	31.110973
405.000000	30.954670
404.000000	30.829003
403.000000	30.671059
402.000000	30.481238
401.000000	30.339064
400.000000	30.139601
399.000000	29.977803
398.000000	29.850921
397.000000	29.655518
396.000000	29.451648
395.000000	29.298255
394.000000	29.081270
393.000000	28.880011
392.000000	28.737223
391.000000	28.565019
390.000000	28.346205
389.000000	28.164845
388.000000	28.012688
387.000000	27.801868
386.000000	27.576557
385.000000	27.391411
384.000000	27.155042
383.000000	26.975823
382.000000	26.758598
381.000000	26.584155
380.000000	26.418860
379.000000	26.106580
378.000000	25.813200
377.000000	25.565111
376.000000	25.367419
375.000000	25.184852
374.000000	25.007266
373.000000	24.678870
372.000000	24.474691
371.000000	24.109119
370.000000	23.737145
369.000000	23.419018
368.000000	22.962779
367.000000	22.456452
366.000000	21.892546
365.000000	21.288708
364.000000	20.513582
363.000000	19.698574
362.000000	18.792946
361.000000	17.725775
360.000000	16.574034
359.000000	15.316722
358.000000	13.961462
357.000000	12.536951
356.000000	11.020091
355.000000	9.474532
354.000000	7.913885
353.000000	6.419614
352.000000	5.002508
351.000000	3.744387
350.000000	2.683524
349.000000	1.818443
348.000000	1.152192
347.000000	0.667179
346.000000	0.356557
345.000000	0.177540
344.000000	0.089285
343.000000	0.044959
342.000000	0.027704
341.000000	0.024986
340.000000	0.018071
339.000000	0.018963
338.000000	0.017434
337.000000	0.017430
336.000000	0.008970
335.000000	0.020177
334.000000	0.019511
333.000000	0.023240
332.000000	0.033612
331.000000	0.026296
330.000000	0.035106
329.000000	0.025446
328.000000	0.025069
327.000000	0.021789
326.000000	0.039162
325.000000	0.042679
