PE UV       SUBTECH     SPECTRUM    ASCII       PEDS        4.00        
   -1
J31.Sample.Raw.asc
18/05/22
14:28:17.00
18/05/22
14:28:17.00
Administrator
longitudinal
325.000000
1
Lambda 850
850L1710193
PerkinElmer UV WinLab 6.4.0.973 / 2.02.06 Lambda 800 UV/VIS, Jan 28 2016 16:58:34

0
0
2
0
0
UV/VIS
1
1
1
RBeamAtt,SBeamAtt,60mm sphere
0
0
0
0
Fix
 
0
0.16
0
0
0
 
 
 
0
 
0
319.2
0
Front
100
 
S:100 R:100
 
0
0
0
 
0
 
 
 
0
 
 
0
0
0
0
0
 
 
 
 
0
0


0
0
#HDR
-1
-1
#GR
nm
%T
1.0
0.0
900.000000
-1.000000
576
8
77.446368
0.012156
#DATA
900.000000	68.145784
899.000000	72.509847
898.000000	68.572611
897.000000	76.321603
896.000000	72.073173
895.000000	77.446368
894.000000	69.236502
893.000000	74.321371
892.000000	73.990530
891.000000	76.063382
890.000000	71.595603
889.000000	74.056696
888.000000	73.652963
887.000000	72.862730
886.000000	73.295480
885.000000	72.598003
884.000000	75.076061
883.000000	73.947973
882.000000	72.794970
881.000000	72.999621
880.000000	74.703964
879.000000	73.558326
878.000000	73.516528
877.000000	72.861366
876.000000	74.527277
875.000000	74.247650
874.000000	73.723963
873.000000	74.360575
872.000000	73.805760
871.000000	73.321871
870.000000	73.996155
869.000000	72.719267
868.000000	74.771088
867.000000	72.259730
866.000000	73.260585
865.000000	72.753423
864.000000	73.376209
863.000000	73.883205
862.000000	73.596595
861.000000	74.299820
860.000000	72.218437
859.000000	73.681319
858.000000	73.093231
857.000000	72.436262
856.000000	73.105713
855.000000	73.350226
854.000000	73.558048
853.000000	73.275876
852.000000	73.434780
851.000000	73.464067
850.000000	73.650076
849.000000	73.284983
848.000000	72.760700
847.000000	73.133617
846.000000	73.201534
845.000000	73.313448
844.000000	73.076143
843.000000	72.844542
842.000000	72.974578
841.000000	73.071455
840.000000	72.832050
839.000000	72.685154
838.000000	72.575177
837.000000	72.687094
836.000000	72.591913
835.000000	72.574145
834.000000	72.457075
833.000000	72.359812
832.000000	72.181349
831.000000	72.521298
830.000000	72.443692
829.000000	72.329634
828.000000	72.023249
827.000000	72.103756
826.000000	72.200572
825.000000	72.515170
824.000000	72.379712
823.000000	72.163719
822.000000	72.338196
821.000000	72.211136
820.000000	72.227756
819.000000	72.194632
818.000000	72.155353
817.000000	72.135629
816.000000	71.917288
815.000000	71.943243
814.000000	72.027176
813.000000	72.047120
812.000000	72.012702
811.000000	72.132069
810.000000	72.014973
809.000000	71.878358
808.000000	71.982597
807.000000	71.966976
806.000000	72.091549
805.000000	72.015078
804.000000	71.859338
803.000000	72.030942
802.000000	71.803290
801.000000	71.905298
800.000000	72.083776
799.000000	71.961980
798.000000	71.724800
797.000000	71.873637
796.000000	71.932307
795.000000	71.826642
794.000000	71.885661
793.000000	71.895393
792.000000	71.850896
791.000000	71.796809
790.000000	71.759844
789.000000	71.917259
788.000000	71.985502
787.000000	71.838484
786.000000	71.812078
785.000000	71.834682
784.000000	71.922087
783.000000	71.781352
782.000000	71.727937
781.000000	71.808708
780.000000	71.700944
779.000000	71.678090
778.000000	71.756147
777.000000	71.809035
776.000000	71.666901
775.000000	71.585759
774.000000	71.645485
773.000000	71.762383
772.000000	71.677064
771.000000	71.676576
770.000000	71.805483
769.000000	71.739735
768.000000	71.694795
767.000000	71.648641
766.000000	71.665407
765.000000	71.730976
764.000000	71.599317
763.000000	71.644190
762.000000	71.695587
761.000000	71.679769
760.000000	71.673633
759.000000	71.607690
758.000000	71.619047
757.000000	71.540690
756.000000	71.523823
755.000000	71.575442
754.000000	71.560944
753.000000	71.496392
752.000000	71.498964
751.000000	71.521777
750.000000	71.488523
749.000000	71.405230
748.000000	71.406456
747.000000	71.412099
746.000000	71.394031
745.000000	71.342706
744.000000	71.316595
743.000000	71.475469
742.000000	71.444911
741.000000	71.533627
740.000000	71.510241
739.000000	71.363588
738.000000	71.232716
737.000000	71.313948
736.000000	71.340280
735.000000	71.282686
734.000000	71.227014
733.000000	71.222314
732.000000	71.224539
731.000000	71.300284
730.000000	71.285538
729.000000	71.304951
728.000000	71.188929
727.000000	71.195030
726.000000	71.262135
725.000000	71.158596
724.000000	71.162255
723.000000	71.219927
722.000000	71.191931
721.000000	71.070016
720.000000	71.054128
719.000000	71.123668
718.000000	71.082233
717.000000	71.074010
716.000000	70.983337
715.000000	70.957139
714.000000	70.971021
713.000000	70.921564
712.000000	70.927500
711.000000	70.952120
710.000000	70.997473
709.000000	70.928923
708.000000	70.920734
707.000000	70.914066
706.000000	70.863188
705.000000	70.852789
704.000000	70.814212
703.000000	70.835893
702.000000	70.896808
701.000000	70.863434
700.000000	70.873353
699.000000	70.807226
698.000000	70.676399
697.000000	70.660716
696.000000	70.700568
695.000000	70.746461
694.000000	70.755274
693.000000	70.700529
692.000000	70.605608
691.000000	70.634443
690.000000	70.559376
689.000000	70.529762
688.000000	70.594942
687.000000	70.592809
686.000000	70.513224
685.000000	70.381067
684.000000	70.474666
683.000000	70.451703
682.000000	70.434444
681.000000	70.400860
680.000000	70.377938
679.000000	70.338527
678.000000	70.308814
677.000000	70.352781
676.000000	70.277382
675.000000	70.355125
674.000000	70.313972
673.000000	70.300255
672.000000	70.261154
671.000000	70.184260
670.000000	70.255085
669.000000	70.169710
668.000000	70.218533
667.000000	70.221558
666.000000	70.177499
665.000000	70.099829
664.000000	70.125211
663.000000	70.086057
662.000000	70.123719
661.000000	69.941429
660.000000	70.083962
659.000000	70.031756
658.000000	70.016743
657.000000	69.946363
656.000000	69.901746
655.000000	69.953251
654.000000	69.887859
653.000000	69.894931
652.000000	69.840855
651.000000	69.869132
650.000000	69.845470
649.000000	69.861898
648.000000	69.831787
647.000000	69.759544
646.000000	69.891330
645.000000	69.698117
644.000000	69.840728
643.000000	69.742902
642.000000	69.713399
641.000000	69.656373
640.000000	69.717782
639.000000	69.586635
638.000000	69.631098
637.000000	69.675644
636.000000	69.499023
635.000000	69.656146
634.000000	69.517829
633.000000	69.507617
632.000000	69.511192
631.000000	69.466301
630.000000	69.460940
629.000000	69.442524
628.000000	69.323712
627.000000	69.366793
626.000000	69.420496
625.000000	69.339932
624.000000	69.315819
623.000000	69.373658
622.000000	69.328790
621.000000	69.305096
620.000000	69.262314
619.000000	69.297656
618.000000	69.217241
617.000000	69.229987
616.000000	69.210732
615.000000	69.108869
614.000000	69.107789
613.000000	69.066154
612.000000	69.069968
611.000000	69.063375
610.000000	69.053049
609.000000	68.982204
608.000000	69.008367
607.000000	68.996849
606.000000	69.008887
605.000000	68.931075
604.000000	68.863202
603.000000	68.869303
602.000000	68.807116
601.000000	68.818337
600.000000	68.786418
599.000000	68.774911
598.000000	68.733921
597.000000	68.738660
596.000000	68.715885
595.000000	68.727842
594.000000	68.637649
593.000000	68.646233
592.000000	68.605691
591.000000	68.614811
590.000000	68.552019
589.000000	68.492129
588.000000	68.502790
587.000000	68.472031
586.000000	68.453079
585.000000	68.412032
584.000000	68.415436
583.000000	68.389623
582.000000	68.415221
581.000000	68.417198
580.000000	68.371081
579.000000	68.311354
578.000000	68.319404
577.000000	68.236406
576.000000	68.208574
575.000000	68.154965
574.000000	68.137891
573.000000	68.058398
572.000000	68.077047
571.000000	68.097135
570.000000	68.067825
569.000000	68.020853
568.000000	68.003828
567.000000	67.975143
566.000000	67.916288
565.000000	67.934171
564.000000	67.910549
563.000000	67.942809
562.000000	67.889137
561.000000	67.867774
560.000000	67.792685
559.000000	67.783681
558.000000	67.777822
557.000000	67.694577
556.000000	67.698444
555.000000	67.709934
554.000000	67.680038
553.000000	67.657178
552.000000	67.633546
551.000000	67.583449
550.000000	67.563246
549.000000	67.579585
548.000000	67.554837
547.000000	67.479172
546.000000	67.438168
545.000000	67.395395
544.000000	67.397785
543.000000	67.375091
542.000000	67.333610
541.000000	67.308345
540.000000	67.293459
539.000000	67.223396
538.000000	67.233053
537.000000	67.200128
536.000000	67.178756
535.000000	67.139867
534.000000	67.114298
533.000000	67.104693
532.000000	67.077084
531.000000	67.051655
530.000000	67.009002
529.000000	66.970844
528.000000	66.949426
527.000000	66.920163
526.000000	66.921512
525.000000	66.878150
524.000000	66.827908
523.000000	66.795284
522.000000	66.771734
521.000000	66.756636
520.000000	66.718909
519.000000	66.676807
518.000000	66.646819
517.000000	66.620651
516.000000	66.592181
515.000000	66.558479
514.000000	66.536381
513.000000	66.501009
512.000000	66.474862
511.000000	66.468573
510.000000	66.422128
509.000000	66.378479
508.000000	66.358281
507.000000	66.314108
506.000000	66.266354
505.000000	66.235402
504.000000	66.217659
503.000000	66.178123
502.000000	66.119060
501.000000	66.091185
500.000000	66.050407
499.000000	65.986781
498.000000	65.928402
497.000000	65.874753
496.000000	65.854494
495.000000	65.785241
494.000000	65.690780
493.000000	65.643689
492.000000	65.614988
491.000000	65.577077
490.000000	65.519310
489.000000	65.462846
488.000000	65.419131
487.000000	65.389866
486.000000	65.345942
485.000000	65.299773
484.000000	65.217886
483.000000	65.210242
482.000000	65.149294
481.000000	65.109833
480.000000	65.080170
479.000000	65.057353
478.000000	64.982855
477.000000	64.974702
476.000000	64.968325
475.000000	64.931665
474.000000	64.864045
473.000000	64.813155
472.000000	64.783637
471.000000	64.728146
470.000000	64.659798
469.000000	64.611949
468.000000	64.601100
467.000000	64.535404
466.000000	64.461815
465.000000	64.405137
464.000000	64.337674
463.000000	64.284937
462.000000	64.220893
461.000000	64.208511
460.000000	64.131117
459.000000	64.034277
458.000000	63.992652
457.000000	63.927431
456.000000	63.839079
455.000000	63.794736
454.000000	63.742588
453.000000	63.638831
452.000000	63.546243
451.000000	63.471555
450.000000	63.405210
449.000000	63.346183
448.000000	63.251161
447.000000	63.184062
446.000000	63.142576
445.000000	63.031013
444.000000	62.914352
443.000000	62.894977
442.000000	62.784176
441.000000	62.626925
440.000000	62.643640
439.000000	62.469649
438.000000	62.388824
437.000000	62.388789
436.000000	62.293031
435.000000	62.160492
434.000000	62.093247
433.000000	61.952712
432.000000	61.901828
431.000000	61.798674
430.000000	61.718170
429.000000	61.660532
428.000000	61.476128
427.000000	61.391922
426.000000	61.246659
425.000000	61.157112
424.000000	61.098266
423.000000	61.069902
422.000000	60.972691
421.000000	60.753825
420.000000	60.633141
419.000000	60.589923
418.000000	60.392745
417.000000	60.236266
416.000000	60.157986
415.000000	60.012855
414.000000	59.885576
413.000000	59.755298
412.000000	59.619894
411.000000	59.530100
410.000000	59.329529
409.000000	59.155166
408.000000	59.025936
407.000000	58.832865
406.000000	58.757286
405.000000	58.525520
404.000000	58.360365
403.000000	58.247126
402.000000	58.046684
401.000000	57.804286
400.000000	57.653443
399.000000	57.496495
398.000000	57.239415
397.000000	57.000814
396.000000	56.862718
395.000000	56.645123
394.000000	56.418390
393.000000	56.117574
392.000000	55.989962
391.000000	55.724551
390.000000	55.517024
389.000000	55.275892
388.000000	54.972988
387.000000	54.708158
386.000000	54.490625
385.000000	54.183005
384.000000	53.941341
383.000000	53.639169
382.000000	53.238948
381.000000	53.013897
380.000000	52.742647
379.000000	52.347788
378.000000	51.965347
377.000000	51.440741
376.000000	51.053642
375.000000	50.732198
374.000000	50.320045
373.000000	49.642936
372.000000	49.196375
371.000000	48.492064
370.000000	47.775790
369.000000	47.187146
368.000000	46.257206
367.000000	45.305031
366.000000	44.180455
365.000000	43.036397
364.000000	41.684369
363.000000	40.168309
362.000000	38.538768
361.000000	36.596091
360.000000	34.568807
359.000000	32.294356
358.000000	29.910268
357.000000	27.353497
356.000000	24.557814
355.000000	21.684700
354.000000	18.759354
353.000000	15.863813
352.000000	13.046420
351.000000	10.344117
350.000000	7.954137
349.000000	5.847672
348.000000	4.087987
347.000000	2.682961
346.000000	1.657465
345.000000	0.937107
344.000000	0.482663
343.000000	0.227708
342.000000	0.110719
341.000000	0.050069
340.000000	0.023512
339.000000	0.012156
338.000000	0.017531
337.000000	0.027557
336.000000	0.024961
335.000000	0.024660
334.000000	0.027998
333.000000	0.028318
332.000000	0.031267
331.000000	0.029913
330.000000	0.040191
329.000000	0.025251
328.000000	0.034959
327.000000	0.036413
326.000000	0.031408
325.000000	0.032279
