PE UV       SUBTECH     SPECTRUM    ASCII       PEDS        4.00        
   -1
J34.Sample.Raw.asc
18/05/22
14:35:29.00
18/05/22
14:35:29.00
Administrator
longitudinal
325.000000
1
Lambda 850
850L1710193
PerkinElmer UV WinLab 6.4.0.973 / 2.02.06 Lambda 800 UV/VIS, Jan 28 2016 16:58:34

0
0
2
0
0
UV/VIS
1
1
1
RBeamAtt,SBeamAtt,60mm sphere
0
0
0
0
Fix
 
0
0.16
0
0
0
 
 
 
0
 
0
319.2
0
Front
100
 
S:100 R:100
 
0
0
0
 
0
 
 
 
0
 
 
0
0
0
0
0
 
 
 
 
0
0


0
0
#HDR
-1
-1
#GR
nm
%T
1.0
0.0
900.000000
-1.000000
576
8
78.767932
0.015267
#DATA
900.000000	71.527496
899.000000	71.747441
898.000000	76.195549
897.000000	75.678064
896.000000	72.707939
895.000000	69.592653
894.000000	71.264686
893.000000	73.125560
892.000000	75.733414
891.000000	78.767932
890.000000	76.158887
889.000000	73.551978
888.000000	78.039044
887.000000	76.359904
886.000000	75.040074
885.000000	76.992443
884.000000	76.309513
883.000000	75.905387
882.000000	75.660592
881.000000	72.825007
880.000000	77.183525
879.000000	77.182529
878.000000	71.773997
877.000000	74.577145
876.000000	74.591120
875.000000	74.915196
874.000000	75.504843
873.000000	75.672927
872.000000	75.099784
871.000000	75.024106
870.000000	75.224539
869.000000	75.394642
868.000000	76.470640
867.000000	74.658860
866.000000	75.461803
865.000000	74.381757
864.000000	75.678489
863.000000	75.104645
862.000000	75.565953
861.000000	75.707746
860.000000	74.193747
859.000000	75.534343
858.000000	75.241090
857.000000	75.035356
856.000000	75.307424
855.000000	75.016789
854.000000	75.228370
853.000000	74.646115
852.000000	75.475892
851.000000	75.459139
850.000000	75.102784
849.000000	75.013814
848.000000	74.812787
847.000000	74.991515
846.000000	75.121723
845.000000	74.602984
844.000000	74.733003
843.000000	74.657327
842.000000	74.557517
841.000000	74.743901
840.000000	74.839077
839.000000	74.781586
838.000000	74.659527
837.000000	74.543214
836.000000	74.356040
835.000000	74.495618
834.000000	74.259457
833.000000	74.335635
832.000000	74.177478
831.000000	74.428839
830.000000	74.354314
829.000000	74.140377
828.000000	74.029906
827.000000	74.200416
826.000000	74.251016
825.000000	74.397660
824.000000	74.062534
823.000000	73.997560
822.000000	74.025339
821.000000	73.886987
820.000000	73.935712
819.000000	73.849242
818.000000	73.872461
817.000000	73.865446
816.000000	73.906118
815.000000	73.957210
814.000000	73.976078
813.000000	74.010817
812.000000	73.952062
811.000000	73.822516
810.000000	73.769890
809.000000	73.858699
808.000000	73.916567
807.000000	73.801022
806.000000	73.724021
805.000000	73.902989
804.000000	73.901441
803.000000	73.856376
802.000000	73.813292
801.000000	73.855608
800.000000	73.881848
799.000000	73.848502
798.000000	73.718750
797.000000	73.776434
796.000000	73.764624
795.000000	73.774586
794.000000	73.826482
793.000000	73.875644
792.000000	73.824801
791.000000	73.725171
790.000000	73.706779
789.000000	73.880928
788.000000	74.046585
787.000000	73.762454
786.000000	73.734350
785.000000	73.753926
784.000000	73.824996
783.000000	73.815524
782.000000	73.720830
781.000000	73.641997
780.000000	73.513162
779.000000	73.483859
778.000000	73.578227
777.000000	73.690306
776.000000	73.587132
775.000000	73.519437
774.000000	73.503930
773.000000	73.517582
772.000000	73.503976
771.000000	73.503000
770.000000	73.621973
769.000000	73.551719
768.000000	73.494641
767.000000	73.431572
766.000000	73.542692
765.000000	73.471403
764.000000	73.318274
763.000000	73.472380
762.000000	73.480586
761.000000	73.414586
760.000000	73.437995
759.000000	73.362283
758.000000	73.347269
757.000000	73.482002
756.000000	73.451235
755.000000	73.387655
754.000000	73.356051
753.000000	73.363617
752.000000	73.404971
751.000000	73.324996
750.000000	73.267683
749.000000	73.220883
748.000000	73.204851
747.000000	73.247943
746.000000	73.201504
745.000000	73.334480
744.000000	73.298555
743.000000	73.143158
742.000000	73.124838
741.000000	73.242820
740.000000	73.233187
739.000000	73.135312
738.000000	73.048340
737.000000	73.098265
736.000000	73.149872
735.000000	73.082072
734.000000	73.018955
733.000000	73.110438
732.000000	73.116445
731.000000	73.106273
730.000000	73.044859
729.000000	73.005962
728.000000	72.963285
727.000000	73.012389
726.000000	73.122899
725.000000	73.019931
724.000000	73.037060
723.000000	73.082542
722.000000	73.055657
721.000000	72.916546
720.000000	72.821516
719.000000	72.928514
718.000000	72.846022
717.000000	72.874662
716.000000	72.825898
715.000000	72.794409
714.000000	72.806672
713.000000	72.833607
712.000000	72.765178
711.000000	72.765583
710.000000	72.727579
709.000000	72.738838
708.000000	72.735488
707.000000	72.851554
706.000000	72.739160
705.000000	72.659898
704.000000	72.657896
703.000000	72.697637
702.000000	72.670235
701.000000	72.664710
700.000000	72.744105
699.000000	72.701975
698.000000	72.595863
697.000000	72.576921
696.000000	72.622180
695.000000	72.570280
694.000000	72.580466
693.000000	72.573768
692.000000	72.464447
691.000000	72.448884
690.000000	72.340448
689.000000	72.308322
688.000000	72.390612
687.000000	72.309698
686.000000	72.286103
685.000000	72.295210
684.000000	72.272524
683.000000	72.281792
682.000000	72.320314
681.000000	72.265628
680.000000	72.217567
679.000000	72.260527
678.000000	72.182241
677.000000	72.230482
676.000000	72.156207
675.000000	72.232677
674.000000	72.202748
673.000000	72.108726
672.000000	72.141897
671.000000	72.109503
670.000000	72.062381
669.000000	72.073814
668.000000	72.090138
667.000000	72.024533
666.000000	72.053821
665.000000	72.024224
664.000000	72.038752
663.000000	71.984153
662.000000	72.057675
661.000000	71.903937
660.000000	71.964167
659.000000	71.914700
658.000000	71.889199
657.000000	71.815427
656.000000	71.834321
655.000000	71.899072
654.000000	71.746621
653.000000	71.780237
652.000000	71.829584
651.000000	71.874143
650.000000	71.768650
649.000000	71.778374
648.000000	71.740444
647.000000	71.718962
646.000000	71.762918
645.000000	71.623742
644.000000	71.760767
643.000000	71.717472
642.000000	71.656058
641.000000	71.635379
640.000000	71.594022
639.000000	71.590288
638.000000	71.673010
637.000000	71.623059
636.000000	71.562239
635.000000	71.613912
634.000000	71.457055
633.000000	71.488130
632.000000	71.578762
631.000000	71.472670
630.000000	71.443008
629.000000	71.477910
628.000000	71.341518
627.000000	71.441450
626.000000	71.398868
625.000000	71.387140
624.000000	71.276998
623.000000	71.374708
622.000000	71.310851
621.000000	71.320224
620.000000	71.271740
619.000000	71.306858
618.000000	71.305451
617.000000	71.187746
616.000000	71.230645
615.000000	71.137832
614.000000	71.178394
613.000000	71.180647
612.000000	71.141545
611.000000	71.168844
610.000000	71.191671
609.000000	71.116508
608.000000	71.097308
607.000000	71.025740
606.000000	71.012432
605.000000	71.032534
604.000000	70.959513
603.000000	70.928042
602.000000	70.865829
601.000000	70.932064
600.000000	70.948682
599.000000	70.876079
598.000000	70.816199
597.000000	70.822615
596.000000	70.790548
595.000000	70.874599
594.000000	70.768696
593.000000	70.782066
592.000000	70.770062
591.000000	70.786258
590.000000	70.744646
589.000000	70.648298
588.000000	70.624167
587.000000	70.606840
586.000000	70.597177
585.000000	70.523943
584.000000	70.615359
583.000000	70.581255
582.000000	70.579620
581.000000	70.587435
580.000000	70.510341
579.000000	70.463024
578.000000	70.461306
577.000000	70.393126
576.000000	70.366028
575.000000	70.350343
574.000000	70.343806
573.000000	70.290823
572.000000	70.244024
571.000000	70.240293
570.000000	70.234498
569.000000	70.248556
568.000000	70.233171
567.000000	70.171870
566.000000	70.176668
565.000000	70.087184
564.000000	70.073939
563.000000	70.153571
562.000000	70.120242
561.000000	70.077964
560.000000	70.014000
559.000000	70.015082
558.000000	70.020883
557.000000	69.964630
556.000000	69.929558
555.000000	69.906988
554.000000	69.903354
553.000000	69.894193
552.000000	69.828464
551.000000	69.793002
550.000000	69.781254
549.000000	69.813969
548.000000	69.728175
547.000000	69.681276
546.000000	69.684255
545.000000	69.662844
544.000000	69.640921
543.000000	69.604197
542.000000	69.576248
541.000000	69.567643
540.000000	69.555003
539.000000	69.497371
538.000000	69.459205
537.000000	69.462917
536.000000	69.434217
535.000000	69.389488
534.000000	69.356384
533.000000	69.364537
532.000000	69.328557
531.000000	69.274298
530.000000	69.234474
529.000000	69.225259
528.000000	69.201820
527.000000	69.175127
526.000000	69.154086
525.000000	69.099557
524.000000	69.052470
523.000000	69.017272
522.000000	68.978060
521.000000	68.980210
520.000000	68.966239
519.000000	68.918291
518.000000	68.883023
517.000000	68.841179
516.000000	68.800313
515.000000	68.770613
514.000000	68.742735
513.000000	68.711358
512.000000	68.703783
511.000000	68.677728
510.000000	68.624821
509.000000	68.585534
508.000000	68.547845
507.000000	68.491106
506.000000	68.449804
505.000000	68.419938
504.000000	68.385215
503.000000	68.356306
502.000000	68.319511
501.000000	68.304439
500.000000	68.272328
499.000000	68.213650
498.000000	68.131176
497.000000	68.083222
496.000000	68.055877
495.000000	68.009725
494.000000	67.939156
493.000000	67.896839
492.000000	67.886518
491.000000	67.831452
490.000000	67.793284
489.000000	67.747540
488.000000	67.681313
487.000000	67.648708
486.000000	67.567654
485.000000	67.518034
484.000000	67.491025
483.000000	67.463595
482.000000	67.399470
481.000000	67.345530
480.000000	67.297407
479.000000	67.288687
478.000000	67.206194
477.000000	67.167292
476.000000	67.153159
475.000000	67.121414
474.000000	67.053444
473.000000	66.978543
472.000000	66.925294
471.000000	66.903431
470.000000	66.842676
469.000000	66.754371
468.000000	66.730537
467.000000	66.683981
466.000000	66.612193
465.000000	66.597493
464.000000	66.510002
463.000000	66.439484
462.000000	66.367533
461.000000	66.355393
460.000000	66.284555
459.000000	66.161822
458.000000	66.148870
457.000000	66.090604
456.000000	66.015025
455.000000	65.926729
454.000000	65.889408
453.000000	65.787128
452.000000	65.747801
451.000000	65.626837
450.000000	65.547379
449.000000	65.497561
448.000000	65.474558
447.000000	65.435772
446.000000	65.383205
445.000000	65.259288
444.000000	65.193838
443.000000	65.049376
442.000000	64.942345
441.000000	64.887756
440.000000	64.829265
439.000000	64.694349
438.000000	64.627372
437.000000	64.560674
436.000000	64.450478
435.000000	64.326311
434.000000	64.282999
433.000000	64.159104
432.000000	64.093551
431.000000	63.953559
430.000000	63.878665
429.000000	63.782384
428.000000	63.645413
427.000000	63.523951
426.000000	63.347150
425.000000	63.267204
424.000000	63.205253
423.000000	63.100595
422.000000	62.973490
421.000000	62.760139
420.000000	62.646123
419.000000	62.565337
418.000000	62.427156
417.000000	62.231198
416.000000	62.098627
415.000000	62.001126
414.000000	61.841437
413.000000	61.603653
412.000000	61.442646
411.000000	61.321851
410.000000	61.145810
409.000000	60.979472
408.000000	60.818342
407.000000	60.627042
406.000000	60.415675
405.000000	60.231576
404.000000	60.025932
403.000000	59.862424
402.000000	59.674032
401.000000	59.322242
400.000000	59.137177
399.000000	59.014218
398.000000	58.757476
397.000000	58.430463
396.000000	58.259104
395.000000	57.996278
394.000000	57.759971
393.000000	57.501959
392.000000	57.280847
391.000000	56.975349
390.000000	56.668801
389.000000	56.385566
388.000000	56.101932
387.000000	55.715955
386.000000	55.384786
385.000000	55.094982
384.000000	54.738588
383.000000	54.326391
382.000000	53.926529
381.000000	53.577093
380.000000	53.155901
379.000000	52.529408
378.000000	51.957952
377.000000	51.438020
376.000000	50.813434
375.000000	50.097573
374.000000	49.585565
373.000000	48.673155
372.000000	47.856160
371.000000	46.717713
370.000000	45.540309
369.000000	44.353087
368.000000	42.879939
367.000000	41.260693
366.000000	39.434660
365.000000	37.432120
364.000000	35.229351
363.000000	32.884560
362.000000	30.264073
361.000000	27.527888
360.000000	24.609982
359.000000	21.638643
358.000000	18.595999
357.000000	15.584086
356.000000	12.628024
355.000000	9.951108
354.000000	7.506812
353.000000	5.435948
352.000000	3.721363
351.000000	2.395154
350.000000	1.456303
349.000000	0.820145
348.000000	0.420230
347.000000	0.209796
346.000000	0.092340
345.000000	0.034557
344.000000	0.032838
343.000000	0.027772
342.000000	0.018955
341.000000	0.019347
340.000000	0.019723
339.000000	0.015267
338.000000	0.018505
337.000000	0.018599
336.000000	0.024083
335.000000	0.028852
334.000000	0.025852
333.000000	0.025388
332.000000	0.034394
331.000000	0.022386
330.000000	0.028750
329.000000	0.029068
328.000000	0.037211
327.000000	0.039652
326.000000	0.036905
325.000000	0.035320
