PE UV       SUBTECH     SPECTRUM    ASCII       PEDS        4.00        
   -1
J37.Sample.Raw.asc
18/05/22
14:39:18.00
18/05/22
14:39:18.00
Administrator
longitudinal
325.000000
1
Lambda 850
850L1710193
PerkinElmer UV WinLab 6.4.0.973 / 2.02.06 Lambda 800 UV/VIS, Jan 28 2016 16:58:34

0
0
2
0
0
UV/VIS
1
1
1
RBeamAtt,SBeamAtt,60mm sphere
0
0
0
0
Fix
 
0
0.16
0
0
0
 
 
 
0
 
0
319.2
0
Front
100
 
S:100 R:100
 
0
0
0
 
0
 
 
 
0
 
 
0
0
0
0
0
 
 
 
 
0
0


0
0
#HDR
-1
-1
#GR
nm
%T
1.0
0.0
900.000000
-1.000000
576
8
77.033839
0.005649
#DATA
900.000000	73.466429
899.000000	73.105555
898.000000	71.163594
897.000000	76.824449
896.000000	76.325353
895.000000	72.022004
894.000000	71.669186
893.000000	68.172456
892.000000	72.833622
891.000000	73.482247
890.000000	77.033839
889.000000	71.569672
888.000000	76.517462
887.000000	76.775902
886.000000	72.362721
885.000000	75.035757
884.000000	75.850124
883.000000	75.868519
882.000000	73.794764
881.000000	72.928188
880.000000	74.644419
879.000000	72.354809
878.000000	73.966424
877.000000	73.285516
876.000000	74.716104
875.000000	74.033459
874.000000	74.914441
873.000000	73.506229
872.000000	74.365467
871.000000	72.721285
870.000000	74.345965
869.000000	73.751915
868.000000	74.929167
867.000000	73.043697
866.000000	73.806628
865.000000	72.992581
864.000000	73.959181
863.000000	73.739810
862.000000	73.795016
861.000000	74.095789
860.000000	73.330014
859.000000	74.100917
858.000000	73.955076
857.000000	73.397107
856.000000	73.451390
855.000000	73.812659
854.000000	73.858791
853.000000	73.378179
852.000000	74.042486
851.000000	73.984517
850.000000	73.829059
849.000000	73.582302
848.000000	73.462690
847.000000	73.225877
846.000000	73.165024
845.000000	73.442114
844.000000	73.248729
843.000000	73.037001
842.000000	73.278547
841.000000	73.279146
840.000000	73.368783
839.000000	73.505350
838.000000	73.084938
837.000000	72.958909
836.000000	72.823386
835.000000	72.928486
834.000000	72.857371
833.000000	72.783364
832.000000	72.662265
831.000000	72.804124
830.000000	72.765727
829.000000	72.686564
828.000000	72.591258
827.000000	72.661808
826.000000	72.814723
825.000000	72.836048
824.000000	72.633678
823.000000	72.607786
822.000000	72.730709
821.000000	72.519510
820.000000	72.535064
819.000000	72.428491
818.000000	72.533050
817.000000	72.428425
816.000000	72.365599
815.000000	72.487150
814.000000	72.408105
813.000000	72.466834
812.000000	72.484300
811.000000	72.432248
810.000000	72.281736
809.000000	72.371140
808.000000	72.467935
807.000000	72.444781
806.000000	72.380165
805.000000	72.384641
804.000000	72.406878
803.000000	72.453810
802.000000	72.206917
801.000000	72.154015
800.000000	72.400618
799.000000	72.425497
798.000000	72.338420
797.000000	72.390543
796.000000	72.248456
795.000000	72.290790
794.000000	72.385073
793.000000	72.341566
792.000000	72.340309
791.000000	72.296187
790.000000	72.305852
789.000000	72.493286
788.000000	72.407732
787.000000	72.149183
786.000000	72.268279
785.000000	72.385341
784.000000	72.400727
783.000000	72.168793
782.000000	72.112416
781.000000	72.246159
780.000000	72.138865
779.000000	72.005177
778.000000	72.309245
777.000000	72.385778
776.000000	72.093994
775.000000	72.043989
774.000000	72.163520
773.000000	72.234073
772.000000	72.180000
771.000000	72.182000
770.000000	72.260985
769.000000	72.190653
768.000000	72.165500
767.000000	72.093759
766.000000	72.043698
765.000000	72.029327
764.000000	71.977102
763.000000	72.133396
762.000000	72.177813
761.000000	72.154270
760.000000	72.101236
759.000000	72.036067
758.000000	72.139839
757.000000	72.141820
756.000000	72.054030
755.000000	72.081981
754.000000	72.143042
753.000000	72.070916
752.000000	71.982490
751.000000	71.959470
750.000000	71.910489
749.000000	71.826512
748.000000	71.883693
747.000000	71.891788
746.000000	71.855197
745.000000	71.826750
744.000000	71.806096
743.000000	71.838840
742.000000	71.868253
741.000000	71.934671
740.000000	71.983815
739.000000	71.824812
738.000000	71.749973
737.000000	71.832056
736.000000	71.859659
735.000000	71.756859
734.000000	71.677895
733.000000	71.677624
732.000000	71.660486
731.000000	71.715775
730.000000	71.769433
729.000000	71.710445
728.000000	71.707244
727.000000	71.784277
726.000000	71.768677
725.000000	71.676915
724.000000	71.671053
723.000000	71.694524
722.000000	71.722933
721.000000	71.679006
720.000000	71.632461
719.000000	71.672253
718.000000	71.599524
717.000000	71.576605
716.000000	71.509820
715.000000	71.519466
714.000000	71.580805
713.000000	71.487594
712.000000	71.519826
711.000000	71.502913
710.000000	71.445958
709.000000	71.429843
708.000000	71.367403
707.000000	71.428423
706.000000	71.428349
705.000000	71.370563
704.000000	71.413606
703.000000	71.340770
702.000000	71.312634
701.000000	71.417853
700.000000	71.455531
699.000000	71.393847
698.000000	71.363376
697.000000	71.305081
696.000000	71.253363
695.000000	71.307816
694.000000	71.306493
693.000000	71.300583
692.000000	71.290562
691.000000	71.188911
690.000000	71.112508
689.000000	70.977675
688.000000	71.133053
687.000000	71.095995
686.000000	71.015858
685.000000	71.017003
684.000000	71.036073
683.000000	71.008098
682.000000	71.028579
681.000000	70.987642
680.000000	70.890446
679.000000	70.888228
678.000000	70.827223
677.000000	70.916926
676.000000	70.945323
675.000000	70.941517
674.000000	70.933443
673.000000	70.833565
672.000000	70.814078
671.000000	70.810349
670.000000	70.846635
669.000000	70.839898
668.000000	70.832644
667.000000	70.809110
666.000000	70.815632
665.000000	70.741555
664.000000	70.710044
663.000000	70.653700
662.000000	70.647423
661.000000	70.583966
660.000000	70.716943
659.000000	70.654318
658.000000	70.664080
657.000000	70.550422
656.000000	70.583242
655.000000	70.631890
654.000000	70.563741
653.000000	70.496220
652.000000	70.540163
651.000000	70.558742
650.000000	70.550107
649.000000	70.531591
648.000000	70.466056
647.000000	70.450128
646.000000	70.484997
645.000000	70.394568
644.000000	70.513914
643.000000	70.412311
642.000000	70.465032
641.000000	70.280927
640.000000	70.371542
639.000000	70.311225
638.000000	70.416940
637.000000	70.400139
636.000000	70.274979
635.000000	70.304533
634.000000	70.213625
633.000000	70.202415
632.000000	70.316040
631.000000	70.224255
630.000000	70.193115
629.000000	70.183054
628.000000	70.072074
627.000000	70.099658
626.000000	70.063524
625.000000	70.123764
624.000000	70.032818
623.000000	70.128454
622.000000	70.053997
621.000000	70.001637
620.000000	70.017316
619.000000	70.031494
618.000000	69.985978
617.000000	69.952088
616.000000	69.922354
615.000000	69.868253
614.000000	69.897521
613.000000	69.866879
612.000000	69.830828
611.000000	69.897374
610.000000	69.875096
609.000000	69.799726
608.000000	69.807678
607.000000	69.775593
606.000000	69.829097
605.000000	69.787257
604.000000	69.695538
603.000000	69.687080
602.000000	69.642243
601.000000	69.656268
600.000000	69.629799
599.000000	69.614588
598.000000	69.585754
597.000000	69.615602
596.000000	69.618576
595.000000	69.569709
594.000000	69.514701
593.000000	69.476635
592.000000	69.427539
591.000000	69.484461
590.000000	69.406471
589.000000	69.378194
588.000000	69.384167
587.000000	69.324411
586.000000	69.326139
585.000000	69.312300
584.000000	69.292000
583.000000	69.299680
582.000000	69.283527
581.000000	69.305138
580.000000	69.252330
579.000000	69.147520
578.000000	69.154712
577.000000	69.094374
576.000000	69.120135
575.000000	69.073618
574.000000	69.055070
573.000000	69.044037
572.000000	69.019562
571.000000	68.997051
570.000000	68.953414
569.000000	68.975057
568.000000	68.930277
567.000000	68.906367
566.000000	68.883329
565.000000	68.850170
564.000000	68.876036
563.000000	68.891747
562.000000	68.819867
561.000000	68.777193
560.000000	68.720584
559.000000	68.693915
558.000000	68.662893
557.000000	68.602108
556.000000	68.632883
555.000000	68.611332
554.000000	68.603500
553.000000	68.601822
552.000000	68.512109
551.000000	68.471558
550.000000	68.477125
549.000000	68.512235
548.000000	68.487905
547.000000	68.429744
546.000000	68.391003
545.000000	68.367509
544.000000	68.343755
543.000000	68.290246
542.000000	68.278012
541.000000	68.291896
540.000000	68.281010
539.000000	68.225368
538.000000	68.193686
537.000000	68.160393
536.000000	68.144758
535.000000	68.100246
534.000000	68.066671
533.000000	68.075431
532.000000	68.070676
531.000000	68.013805
530.000000	67.977460
529.000000	67.952652
528.000000	67.916233
527.000000	67.910318
526.000000	67.872799
525.000000	67.819760
524.000000	67.777931
523.000000	67.750378
522.000000	67.738510
521.000000	67.715821
520.000000	67.668938
519.000000	67.636771
518.000000	67.612316
517.000000	67.580877
516.000000	67.546476
515.000000	67.512698
514.000000	67.476729
513.000000	67.456365
512.000000	67.439028
511.000000	67.396411
510.000000	67.347497
509.000000	67.330635
508.000000	67.296578
507.000000	67.235247
506.000000	67.194814
505.000000	67.166909
504.000000	67.133869
503.000000	67.104430
502.000000	67.082102
501.000000	67.055811
500.000000	67.005394
499.000000	66.939500
498.000000	66.866940
497.000000	66.832189
496.000000	66.839443
495.000000	66.787531
494.000000	66.656299
493.000000	66.606876
492.000000	66.636275
491.000000	66.596438
490.000000	66.492870
489.000000	66.484533
488.000000	66.425636
487.000000	66.378656
486.000000	66.368595
485.000000	66.283470
484.000000	66.208138
483.000000	66.213521
482.000000	66.172253
481.000000	66.111674
480.000000	66.063695
479.000000	66.023833
478.000000	65.985913
477.000000	65.981559
476.000000	65.939703
475.000000	65.897006
474.000000	65.861107
473.000000	65.813064
472.000000	65.739627
471.000000	65.674415
470.000000	65.618747
469.000000	65.549758
468.000000	65.498742
467.000000	65.484018
466.000000	65.438546
465.000000	65.393758
464.000000	65.331395
463.000000	65.274163
462.000000	65.203330
461.000000	65.156529
460.000000	65.076510
459.000000	64.990078
458.000000	64.963132
457.000000	64.925873
456.000000	64.846038
455.000000	64.781409
454.000000	64.722898
453.000000	64.595537
452.000000	64.518536
451.000000	64.482986
450.000000	64.382304
449.000000	64.266830
448.000000	64.208442
447.000000	64.214638
446.000000	64.135524
445.000000	64.055822
444.000000	63.960422
443.000000	63.863880
442.000000	63.727074
441.000000	63.644366
440.000000	63.588209
439.000000	63.489817
438.000000	63.417667
437.000000	63.354279
436.000000	63.223358
435.000000	63.097629
434.000000	63.042486
433.000000	62.942336
432.000000	62.860290
431.000000	62.723288
430.000000	62.655339
429.000000	62.572885
428.000000	62.381739
427.000000	62.338778
426.000000	62.178351
425.000000	62.094505
424.000000	61.980153
423.000000	61.869937
422.000000	61.749634
421.000000	61.648039
420.000000	61.511800
419.000000	61.390697
418.000000	61.212254
417.000000	61.102950
416.000000	60.879364
415.000000	60.803980
414.000000	60.696841
413.000000	60.446171
412.000000	60.318173
411.000000	60.193347
410.000000	60.049235
409.000000	59.888823
408.000000	59.685995
407.000000	59.552394
406.000000	59.381237
405.000000	59.182195
404.000000	58.985354
403.000000	58.833093
402.000000	58.564129
401.000000	58.353608
400.000000	58.088244
399.000000	57.919989
398.000000	57.788069
397.000000	57.474940
396.000000	57.188691
395.000000	57.012624
394.000000	56.783900
393.000000	56.506547
392.000000	56.323112
391.000000	56.005554
390.000000	55.781737
389.000000	55.411375
388.000000	55.084841
387.000000	54.815354
386.000000	54.438563
385.000000	54.142834
384.000000	53.769749
383.000000	53.397229
382.000000	52.993329
381.000000	52.617299
380.000000	52.141817
379.000000	51.599331
378.000000	51.067012
377.000000	50.570553
376.000000	49.878390
375.000000	49.232561
374.000000	48.664956
373.000000	47.767002
372.000000	46.906097
371.000000	45.911536
370.000000	44.737100
369.000000	43.556889
368.000000	42.179233
367.000000	40.623868
366.000000	38.822262
365.000000	36.941832
364.000000	34.760152
363.000000	32.386977
362.000000	29.856713
361.000000	27.134170
360.000000	24.399299
359.000000	21.478788
358.000000	18.507057
357.000000	15.530129
356.000000	12.622728
355.000000	9.967695
354.000000	7.569089
353.000000	5.490413
352.000000	3.782061
351.000000	2.452315
350.000000	1.508393
349.000000	0.859282
348.000000	0.449969
347.000000	0.220261
346.000000	0.103883
345.000000	0.049991
344.000000	0.040708
343.000000	0.022916
342.000000	0.014387
341.000000	0.013319
340.000000	0.011853
339.000000	0.016143
338.000000	0.005649
337.000000	0.022202
336.000000	0.025059
335.000000	0.022614
334.000000	0.027998
333.000000	0.024314
332.000000	0.019737
331.000000	0.023950
330.000000	0.023567
329.000000	0.035234
328.000000	0.029573
327.000000	0.033371
326.000000	0.035040
325.000000	0.030611
