PE UV       SUBTECH     SPECTRUM    ASCII       PEDS        4.00        
   -1
J38.Sample.Raw.asc
18/05/22
14:42:52.00
18/05/22
14:42:52.00
Administrator
longitudinal
325.000000
1
Lambda 850
850L1710193
PerkinElmer UV WinLab 6.4.0.973 / 2.02.06 Lambda 800 UV/VIS, Jan 28 2016 16:58:34

0
0
2
0
0
UV/VIS
1
1
1
RBeamAtt,SBeamAtt,60mm sphere
0
0
0
0
Fix
 
0
0.16
0
0
0
 
 
 
0
 
0
319.2
0
Front
100
 
S:100 R:100
 
0
0
0
 
0
 
 
 
0
 
 
0
0
0
0
0
 
 
 
 
0
0


0
0
#HDR
-1
-1
#GR
nm
%T
1.0
0.0
900.000000
-1.000000
576
8
76.238423
0.014025
#DATA
900.000000	69.651643
899.000000	74.411610
898.000000	73.590043
897.000000	72.312788
896.000000	71.578725
895.000000	71.490769
894.000000	71.480967
893.000000	71.975888
892.000000	74.374554
891.000000	73.739215
890.000000	75.854986
889.000000	74.614217
888.000000	76.238423
887.000000	73.499809
886.000000	74.817605
885.000000	72.087403
884.000000	71.406207
883.000000	75.247807
882.000000	74.991880
881.000000	71.578131
880.000000	75.211241
879.000000	75.019121
878.000000	73.046268
877.000000	72.991807
876.000000	73.366924
875.000000	73.759217
874.000000	74.253209
873.000000	73.785614
872.000000	74.909489
871.000000	74.031193
870.000000	74.676714
869.000000	73.623423
868.000000	75.695427
867.000000	73.338462
866.000000	73.506326
865.000000	73.291826
864.000000	74.205397
863.000000	73.964273
862.000000	74.205159
861.000000	73.972751
860.000000	72.716745
859.000000	74.159127
858.000000	73.229262
857.000000	73.570023
856.000000	73.572402
855.000000	73.468962
854.000000	73.831862
853.000000	73.427465
852.000000	73.877244
851.000000	74.270905
850.000000	73.615623
849.000000	73.729137
848.000000	73.373366
847.000000	73.395839
846.000000	73.326279
845.000000	73.388736
844.000000	73.468922
843.000000	73.204211
842.000000	72.973649
841.000000	73.283887
840.000000	73.016312
839.000000	73.094746
838.000000	73.071945
837.000000	72.842333
836.000000	72.913483
835.000000	72.856843
834.000000	72.705926
833.000000	72.860091
832.000000	72.399078
831.000000	72.724650
830.000000	72.648723
829.000000	72.626153
828.000000	72.608587
827.000000	72.628005
826.000000	72.452648
825.000000	72.780831
824.000000	72.471049
823.000000	72.371381
822.000000	72.305843
821.000000	72.373791
820.000000	72.225829
819.000000	72.272389
818.000000	72.454443
817.000000	72.188378
816.000000	72.090204
815.000000	72.082446
814.000000	72.369216
813.000000	72.486366
812.000000	72.379706
811.000000	72.377060
810.000000	72.322563
809.000000	72.110635
808.000000	72.196531
807.000000	72.188934
806.000000	72.191948
805.000000	72.065320
804.000000	71.987274
803.000000	72.172542
802.000000	72.085485
801.000000	72.008308
800.000000	72.221055
799.000000	72.134591
798.000000	71.948225
797.000000	72.078451
796.000000	72.159413
795.000000	72.187244
794.000000	72.095882
793.000000	71.947166
792.000000	71.905378
791.000000	72.090338
790.000000	72.059833
789.000000	72.011731
788.000000	72.155373
787.000000	72.051125
786.000000	72.116128
785.000000	72.048091
784.000000	71.976301
783.000000	71.844055
782.000000	71.815065
781.000000	71.915261
780.000000	71.765615
779.000000	71.704075
778.000000	71.850471
777.000000	71.962618
776.000000	71.811886
775.000000	71.772229
774.000000	71.758554
773.000000	71.761366
772.000000	71.691035
771.000000	71.707413
770.000000	71.776881
769.000000	71.702661
768.000000	71.692759
767.000000	71.661785
766.000000	71.792946
765.000000	71.767070
764.000000	71.584636
763.000000	71.628218
762.000000	71.666756
761.000000	71.631102
760.000000	71.593814
759.000000	71.574430
758.000000	71.644004
757.000000	71.607690
756.000000	71.515214
755.000000	71.595147
754.000000	71.545327
753.000000	71.506805
752.000000	71.456607
751.000000	71.484107
750.000000	71.455729
749.000000	71.371083
748.000000	71.484372
747.000000	71.468171
746.000000	71.365988
745.000000	71.425675
744.000000	71.432788
743.000000	71.331096
742.000000	71.261962
741.000000	71.361739
740.000000	71.364704
739.000000	71.271909
738.000000	71.196405
737.000000	71.254971
736.000000	71.276795
735.000000	71.198852
734.000000	71.191064
733.000000	71.219137
732.000000	71.178858
731.000000	71.221225
730.000000	71.179696
729.000000	71.133294
728.000000	71.004841
727.000000	71.138187
726.000000	71.246464
725.000000	71.130962
724.000000	71.084256
723.000000	71.148040
722.000000	71.063600
721.000000	71.010823
720.000000	70.987887
719.000000	70.974924
718.000000	70.976102
717.000000	70.910330
716.000000	70.838716
715.000000	70.864568
714.000000	70.859453
713.000000	70.778180
712.000000	70.817669
711.000000	70.801487
710.000000	70.788002
709.000000	70.767135
708.000000	70.760296
707.000000	70.733677
706.000000	70.724903
705.000000	70.642670
704.000000	70.639904
703.000000	70.642649
702.000000	70.638205
701.000000	70.590080
700.000000	70.692354
699.000000	70.670085
698.000000	70.496815
697.000000	70.486028
696.000000	70.549979
695.000000	70.598206
694.000000	70.562481
693.000000	70.517927
692.000000	70.412273
691.000000	70.347975
690.000000	70.339789
689.000000	70.238927
688.000000	70.298035
687.000000	70.287670
686.000000	70.155526
685.000000	70.163158
684.000000	70.185498
683.000000	70.199238
682.000000	70.146967
681.000000	70.120056
680.000000	70.129152
679.000000	70.102642
678.000000	69.985232
677.000000	70.080181
676.000000	70.089708
675.000000	70.085387
674.000000	70.044259
673.000000	70.040037
672.000000	69.966383
671.000000	69.954424
670.000000	69.911820
669.000000	69.925190
668.000000	69.914744
667.000000	69.938275
666.000000	69.908881
665.000000	69.803694
664.000000	69.806607
663.000000	69.758279
662.000000	69.817514
661.000000	69.640831
660.000000	69.697794
659.000000	69.610785
658.000000	69.640736
657.000000	69.530648
656.000000	69.562697
655.000000	69.576472
654.000000	69.574854
653.000000	69.465153
652.000000	69.496869
651.000000	69.462298
650.000000	69.423875
649.000000	69.434579
648.000000	69.391657
647.000000	69.361882
646.000000	69.393667
645.000000	69.307040
644.000000	69.407942
643.000000	69.368725
642.000000	69.288251
641.000000	69.263122
640.000000	69.186033
639.000000	69.116041
638.000000	69.218533
637.000000	69.227438
636.000000	69.059889
635.000000	69.177143
634.000000	69.004373
633.000000	69.007374
632.000000	69.064696
631.000000	69.021325
630.000000	68.935958
629.000000	68.932125
628.000000	68.845550
627.000000	68.849245
626.000000	68.897144
625.000000	68.768821
624.000000	68.769297
623.000000	68.799064
622.000000	68.645430
621.000000	68.654250
620.000000	68.659101
619.000000	68.668301
618.000000	68.591793
617.000000	68.545477
616.000000	68.587252
615.000000	68.442559
614.000000	68.520244
613.000000	68.460636
612.000000	68.432398
611.000000	68.419004
610.000000	68.442478
609.000000	68.304048
608.000000	68.323656
607.000000	68.337972
606.000000	68.261495
605.000000	68.268342
604.000000	68.174805
603.000000	68.169755
602.000000	68.097091
601.000000	68.094146
600.000000	68.087241
599.000000	68.035576
598.000000	67.992743
597.000000	67.987183
596.000000	67.931470
595.000000	67.961024
594.000000	67.902796
593.000000	67.847675
592.000000	67.791474
591.000000	67.840950
590.000000	67.759939
589.000000	67.692908
588.000000	67.714401
587.000000	67.620002
586.000000	67.610194
585.000000	67.545621
584.000000	67.575995
583.000000	67.568825
582.000000	67.537344
581.000000	67.547699
580.000000	67.482020
579.000000	67.420953
578.000000	67.417735
577.000000	67.319041
576.000000	67.329306
575.000000	67.285448
574.000000	67.252823
573.000000	67.210745
572.000000	67.165674
571.000000	67.174665
570.000000	67.120986
569.000000	67.081922
568.000000	67.071672
567.000000	67.020750
566.000000	67.015525
565.000000	66.962080
564.000000	66.930223
563.000000	66.948722
562.000000	66.902368
561.000000	66.897191
560.000000	66.815111
559.000000	66.783588
558.000000	66.738029
557.000000	66.731891
556.000000	66.657531
555.000000	66.673410
554.000000	66.642993
553.000000	66.628974
552.000000	66.590987
551.000000	66.512013
550.000000	66.475553
549.000000	66.510160
548.000000	66.437797
547.000000	66.390678
546.000000	66.372298
545.000000	66.349102
544.000000	66.339211
543.000000	66.300645
542.000000	66.247885
541.000000	66.227104
540.000000	66.217658
539.000000	66.155773
538.000000	66.140868
537.000000	66.107626
536.000000	66.076764
535.000000	66.052101
534.000000	65.999848
533.000000	65.984639
532.000000	65.968067
531.000000	65.910220
530.000000	65.847097
529.000000	65.832774
528.000000	65.803474
527.000000	65.749260
526.000000	65.719913
525.000000	65.710007
524.000000	65.686087
523.000000	65.627968
522.000000	65.594301
521.000000	65.589508
520.000000	65.540590
519.000000	65.503373
518.000000	65.476193
517.000000	65.429852
516.000000	65.402127
515.000000	65.376706
514.000000	65.333566
513.000000	65.303772
512.000000	65.275395
511.000000	65.221657
510.000000	65.176967
509.000000	65.160553
508.000000	65.117419
507.000000	65.043147
506.000000	65.015079
505.000000	64.980601
504.000000	64.943947
503.000000	64.930602
502.000000	64.884230
501.000000	64.835791
500.000000	64.784008
499.000000	64.726613
498.000000	64.664878
497.000000	64.601731
496.000000	64.585462
495.000000	64.514031
494.000000	64.428095
493.000000	64.374861
492.000000	64.348587
491.000000	64.294161
490.000000	64.217921
489.000000	64.149715
488.000000	64.090632
487.000000	64.035375
486.000000	63.987262
485.000000	63.940968
484.000000	63.910678
483.000000	63.887845
482.000000	63.836793
481.000000	63.775504
480.000000	63.720927
479.000000	63.712833
478.000000	63.666391
477.000000	63.623845
476.000000	63.585800
475.000000	63.534020
474.000000	63.488097
473.000000	63.448782
472.000000	63.421633
471.000000	63.361441
470.000000	63.301184
469.000000	63.227681
468.000000	63.174704
467.000000	63.115873
466.000000	63.108441
465.000000	63.039427
464.000000	62.965254
463.000000	62.888215
462.000000	62.827534
461.000000	62.820735
460.000000	62.740954
459.000000	62.648811
458.000000	62.596103
457.000000	62.532886
456.000000	62.472917
455.000000	62.396897
454.000000	62.355165
453.000000	62.267518
452.000000	62.168701
451.000000	62.086786
450.000000	62.046283
449.000000	61.908967
448.000000	61.817375
447.000000	61.833783
446.000000	61.738779
445.000000	61.679748
444.000000	61.576213
443.000000	61.457352
442.000000	61.363230
441.000000	61.325917
440.000000	61.262727
439.000000	61.080221
438.000000	60.999412
437.000000	60.984361
436.000000	60.913565
435.000000	60.774674
434.000000	60.681025
433.000000	60.574561
432.000000	60.522678
431.000000	60.399443
430.000000	60.363503
429.000000	60.253558
428.000000	60.110862
427.000000	60.047752
426.000000	59.923350
425.000000	59.819379
424.000000	59.740213
423.000000	59.677648
422.000000	59.550693
421.000000	59.366802
420.000000	59.271739
419.000000	59.167707
418.000000	59.042645
417.000000	58.866060
416.000000	58.735572
415.000000	58.665797
414.000000	58.454472
413.000000	58.330732
412.000000	58.165388
411.000000	58.066856
410.000000	57.920979
409.000000	57.737348
408.000000	57.599533
407.000000	57.462953
406.000000	57.267512
405.000000	57.100007
404.000000	56.871623
403.000000	56.744142
402.000000	56.604244
401.000000	56.332069
400.000000	56.153683
399.000000	56.050964
398.000000	55.821515
397.000000	55.529588
396.000000	55.272560
395.000000	55.187763
394.000000	54.936645
393.000000	54.699356
392.000000	54.471579
391.000000	54.217636
390.000000	54.024040
389.000000	53.745020
388.000000	53.459180
387.000000	53.258305
386.000000	52.981296
385.000000	52.626481
384.000000	52.312168
383.000000	52.033527
382.000000	51.731748
381.000000	51.366483
380.000000	51.089247
379.000000	50.794502
378.000000	50.110361
377.000000	49.771122
376.000000	49.307235
375.000000	48.899371
374.000000	48.534779
373.000000	47.873714
372.000000	47.555210
371.000000	46.821087
370.000000	46.084913
369.000000	45.318074
368.000000	44.438538
367.000000	43.461727
366.000000	42.302837
365.000000	41.086638
364.000000	39.738708
363.000000	38.212596
362.000000	36.496299
361.000000	34.591175
360.000000	32.521309
359.000000	30.245884
358.000000	27.850442
357.000000	25.218816
356.000000	22.521849
355.000000	19.707130
354.000000	16.927911
353.000000	14.119172
352.000000	11.433172
351.000000	8.967706
350.000000	6.761481
349.000000	4.871849
348.000000	3.326091
347.000000	2.129062
346.000000	1.273652
345.000000	0.704723
344.000000	0.351407
343.000000	0.171291
342.000000	0.077571
341.000000	0.038597
340.000000	0.030604
339.000000	0.022463
338.000000	0.014025
337.000000	0.019670
336.000000	0.034711
335.000000	0.026123
334.000000	0.016389
333.000000	0.028318
332.000000	0.022082
331.000000	0.021213
330.000000	0.023371
329.000000	0.031123
328.000000	0.037603
327.000000	0.030721
326.000000	0.039751
325.000000	0.045818
