PE UV       SUBTECH     SPECTRUM    ASCII       PEDS        4.00        
   -1
J43.Sample.Raw.asc
18/05/22
14:46:23.00
18/05/22
14:46:23.00
Administrator
longitudinal
325.000000
1
Lambda 850
850L1710193
PerkinElmer UV WinLab 6.4.0.973 / 2.02.06 Lambda 800 UV/VIS, Jan 28 2016 16:58:34

0
0
2
0
0
UV/VIS
1
1
1
RBeamAtt,SBeamAtt,60mm sphere
0
0
0
0
Fix
 
0
0.16
0
0
0
 
 
 
0
 
0
319.2
0
Front
100
 
S:100 R:100
 
0
0
0
 
0
 
 
 
0
 
 
0
0
0
0
0
 
 
 
 
0
0


0
0
#HDR
-1
-1
#GR
nm
%T
1.0
0.0
900.000000
-1.000000
576
8
77.897849
0.018340
#DATA
900.000000	67.327236
899.000000	77.543791
898.000000	72.807026
897.000000	77.897849
896.000000	74.697482
895.000000	75.896787
894.000000	72.912193
893.000000	72.224177
892.000000	74.096344
891.000000	74.791300
890.000000	72.739649
889.000000	73.167264
888.000000	73.894328
887.000000	75.998625
886.000000	73.989810
885.000000	75.641591
884.000000	75.668332
883.000000	74.567021
882.000000	73.287402
881.000000	74.536497
880.000000	73.937077
879.000000	75.925193
878.000000	73.574441
877.000000	72.956908
876.000000	75.513803
875.000000	73.724742
874.000000	74.353668
873.000000	74.472794
872.000000	73.979331
871.000000	73.918325
870.000000	75.008508
869.000000	73.283604
868.000000	75.249715
867.000000	73.055695
866.000000	74.046287
865.000000	73.396234
864.000000	74.898046
863.000000	75.229729
862.000000	74.288664
861.000000	74.963243
860.000000	72.834411
859.000000	74.397301
858.000000	74.393267
857.000000	73.650412
856.000000	73.975437
855.000000	73.958207
854.000000	74.385539
853.000000	73.937286
852.000000	74.571107
851.000000	74.150119
850.000000	73.992645
849.000000	74.174224
848.000000	73.882327
847.000000	74.020329
846.000000	73.880277
845.000000	73.992561
844.000000	73.798197
843.000000	73.523428
842.000000	73.608361
841.000000	73.854464
840.000000	73.755302
839.000000	73.654915
838.000000	73.520285
837.000000	73.433467
836.000000	73.519572
835.000000	73.379642
834.000000	73.308177
833.000000	73.234230
832.000000	73.249110
831.000000	73.361871
830.000000	73.262302
829.000000	73.005988
828.000000	72.869026
827.000000	73.029537
826.000000	73.185447
825.000000	73.257442
824.000000	73.040713
823.000000	72.978694
822.000000	72.972604
821.000000	72.930256
820.000000	72.868344
819.000000	72.940702
818.000000	72.838090
817.000000	72.711509
816.000000	72.799772
815.000000	73.031226
814.000000	72.992868
813.000000	72.969285
812.000000	72.988417
811.000000	72.876100
810.000000	72.753726
809.000000	72.718927
808.000000	72.669034
807.000000	72.734433
806.000000	72.829990
805.000000	72.704633
804.000000	72.692762
803.000000	72.672211
802.000000	72.515781
801.000000	72.573353
800.000000	72.799844
799.000000	72.788710
798.000000	72.614050
797.000000	72.637949
796.000000	72.659113
795.000000	72.767388
794.000000	72.709792
793.000000	72.662053
792.000000	72.700043
791.000000	72.677480
790.000000	72.549850
789.000000	72.704414
788.000000	72.725523
787.000000	72.560805
786.000000	72.533932
785.000000	72.514585
784.000000	72.481627
783.000000	72.429731
782.000000	72.526360
781.000000	72.597505
780.000000	72.506290
779.000000	72.427513
778.000000	72.475665
777.000000	72.448007
776.000000	72.272373
775.000000	72.277964
774.000000	72.412848
773.000000	72.520492
772.000000	72.456615
771.000000	72.488423
770.000000	72.489542
769.000000	72.278376
768.000000	72.315078
767.000000	72.359693
766.000000	72.297589
765.000000	72.248187
764.000000	72.151399
763.000000	72.280633
762.000000	72.365515
761.000000	72.390883
760.000000	72.394814
759.000000	72.265992
758.000000	72.268716
757.000000	72.326540
756.000000	72.194509
755.000000	72.162082
754.000000	72.173764
753.000000	72.122897
752.000000	72.114174
751.000000	72.073249
750.000000	72.081975
749.000000	72.089354
748.000000	72.068317
747.000000	72.052653
746.000000	72.108094
745.000000	72.124755
744.000000	72.062953
743.000000	72.001184
742.000000	71.979460
741.000000	72.028030
740.000000	71.996079
739.000000	71.932685
738.000000	71.847601
737.000000	71.850829
736.000000	71.949912
735.000000	71.892864
734.000000	71.849410
733.000000	71.863766
732.000000	71.810581
731.000000	71.908611
730.000000	71.876908
729.000000	71.826203
728.000000	71.796022
727.000000	71.727519
726.000000	71.864595
725.000000	71.758352
724.000000	71.749568
723.000000	71.766067
722.000000	71.736129
721.000000	71.666341
720.000000	71.609807
719.000000	71.650006
718.000000	71.627716
717.000000	71.616879
716.000000	71.522583
715.000000	71.517309
714.000000	71.527221
713.000000	71.428239
712.000000	71.435726
711.000000	71.506022
710.000000	71.448982
709.000000	71.425003
708.000000	71.433582
707.000000	71.498123
706.000000	71.429733
705.000000	71.368229
704.000000	71.351322
703.000000	71.313769
702.000000	71.373237
701.000000	71.366214
700.000000	71.375780
699.000000	71.313573
698.000000	71.258120
697.000000	71.179152
696.000000	71.208827
695.000000	71.209703
694.000000	71.175044
693.000000	71.191057
692.000000	71.091416
691.000000	71.096832
690.000000	71.038098
689.000000	70.963371
688.000000	71.010282
687.000000	70.959914
686.000000	70.971016
685.000000	70.966496
684.000000	70.988848
683.000000	70.875487
682.000000	70.902374
681.000000	70.838950
680.000000	70.808820
679.000000	70.917855
678.000000	70.726684
677.000000	70.844366
676.000000	70.777382
675.000000	70.888771
674.000000	70.816248
673.000000	70.761964
672.000000	70.703876
671.000000	70.650282
670.000000	70.689672
669.000000	70.717856
668.000000	70.757982
667.000000	70.700168
666.000000	70.631005
665.000000	70.574550
664.000000	70.564511
663.000000	70.625296
662.000000	70.540068
661.000000	70.448548
660.000000	70.464988
659.000000	70.525533
658.000000	70.440689
657.000000	70.319479
656.000000	70.376239
655.000000	70.372331
654.000000	70.388754
653.000000	70.366476
652.000000	70.311305
651.000000	70.347992
650.000000	70.279019
649.000000	70.237460
648.000000	70.327610
647.000000	70.244576
646.000000	70.296047
645.000000	70.128381
644.000000	70.241509
643.000000	70.239124
642.000000	70.175425
641.000000	70.133043
640.000000	70.188524
639.000000	70.091218
638.000000	70.142626
637.000000	70.096728
636.000000	70.044403
635.000000	70.134098
634.000000	69.955761
633.000000	69.958895
632.000000	70.015808
631.000000	69.948889
630.000000	69.928436
629.000000	69.918973
628.000000	69.773551
627.000000	69.770906
626.000000	69.876262
625.000000	69.789974
624.000000	69.741660
623.000000	69.815883
622.000000	69.719320
621.000000	69.727117
620.000000	69.686236
619.000000	69.743639
618.000000	69.677327
617.000000	69.592308
616.000000	69.612980
615.000000	69.529231
614.000000	69.552567
613.000000	69.518189
612.000000	69.489261
611.000000	69.508735
610.000000	69.489948
609.000000	69.437289
608.000000	69.439939
607.000000	69.408361
606.000000	69.408070
605.000000	69.374388
604.000000	69.257061
603.000000	69.330026
602.000000	69.239057
601.000000	69.242696
600.000000	69.243501
599.000000	69.187776
598.000000	69.154796
597.000000	69.188668
596.000000	69.179865
595.000000	69.173309
594.000000	69.073894
593.000000	69.061170
592.000000	69.075481
591.000000	69.050909
590.000000	68.972402
589.000000	68.937661
588.000000	68.912292
587.000000	68.854103
586.000000	68.895969
585.000000	68.853483
584.000000	68.855736
583.000000	68.834251
582.000000	68.837300
581.000000	68.791710
580.000000	68.759607
579.000000	68.691876
578.000000	68.733810
577.000000	68.681314
576.000000	68.621532
575.000000	68.581564
574.000000	68.584812
573.000000	68.572797
572.000000	68.497863
571.000000	68.482061
570.000000	68.454458
569.000000	68.412558
568.000000	68.420831
567.000000	68.362604
566.000000	68.373912
565.000000	68.303906
564.000000	68.291792
563.000000	68.321225
562.000000	68.271584
561.000000	68.276303
560.000000	68.260446
559.000000	68.179899
558.000000	68.122814
557.000000	68.114987
556.000000	68.105072
555.000000	68.098675
554.000000	68.085153
553.000000	68.040554
552.000000	67.990698
551.000000	67.918776
550.000000	67.941243
549.000000	67.976865
548.000000	67.902473
547.000000	67.871320
546.000000	67.867560
545.000000	67.842394
544.000000	67.826936
543.000000	67.770912
542.000000	67.721638
541.000000	67.712400
540.000000	67.672789
539.000000	67.635741
538.000000	67.631904
537.000000	67.625854
536.000000	67.594505
535.000000	67.559333
534.000000	67.503421
533.000000	67.482003
532.000000	67.472251
531.000000	67.440513
530.000000	67.420677
529.000000	67.400718
528.000000	67.344696
527.000000	67.319416
526.000000	67.310187
525.000000	67.250157
524.000000	67.196171
523.000000	67.182531
522.000000	67.153670
521.000000	67.134000
520.000000	67.123362
519.000000	67.063652
518.000000	67.013054
517.000000	66.993980
516.000000	66.943203
515.000000	66.892298
514.000000	66.861863
513.000000	66.832237
512.000000	66.808315
511.000000	66.772909
510.000000	66.713360
509.000000	66.671362
508.000000	66.646737
507.000000	66.576407
506.000000	66.526358
505.000000	66.514562
504.000000	66.457473
503.000000	66.428764
502.000000	66.398587
501.000000	66.327467
500.000000	66.299999
499.000000	66.231707
498.000000	66.152597
497.000000	66.123392
496.000000	66.055097
495.000000	66.014753
494.000000	65.956042
493.000000	65.864706
492.000000	65.844564
491.000000	65.790069
490.000000	65.722530
489.000000	65.678660
488.000000	65.650428
487.000000	65.613124
486.000000	65.555207
485.000000	65.486841
484.000000	65.398789
483.000000	65.376179
482.000000	65.320211
481.000000	65.271395
480.000000	65.253080
479.000000	65.235223
478.000000	65.184674
477.000000	65.153052
476.000000	65.092694
475.000000	65.064048
474.000000	65.020299
473.000000	64.971797
472.000000	64.932865
471.000000	64.844774
470.000000	64.785703
469.000000	64.709903
468.000000	64.651487
467.000000	64.624851
466.000000	64.565209
465.000000	64.509119
464.000000	64.435508
463.000000	64.378913
462.000000	64.317179
461.000000	64.319781
460.000000	64.223463
459.000000	64.112003
458.000000	64.066716
457.000000	64.031172
456.000000	63.927700
455.000000	63.836555
454.000000	63.764839
453.000000	63.690078
452.000000	63.644264
451.000000	63.478759
450.000000	63.430387
449.000000	63.348940
448.000000	63.253474
447.000000	63.245564
446.000000	63.099142
445.000000	63.017496
444.000000	62.891544
443.000000	62.824434
442.000000	62.708532
441.000000	62.598560
440.000000	62.536883
439.000000	62.411742
438.000000	62.364698
437.000000	62.295587
436.000000	62.164655
435.000000	62.080504
434.000000	61.945611
433.000000	61.892105
432.000000	61.803590
431.000000	61.606160
430.000000	61.545658
429.000000	61.448018
428.000000	61.298208
427.000000	61.193399
426.000000	61.039369
425.000000	60.950841
424.000000	60.876679
423.000000	60.746265
422.000000	60.621143
421.000000	60.430076
420.000000	60.326737
419.000000	60.282780
418.000000	60.103112
417.000000	59.929229
416.000000	59.824719
415.000000	59.573979
414.000000	59.474417
413.000000	59.282662
412.000000	59.190184
411.000000	59.027719
410.000000	58.838080
409.000000	58.694738
408.000000	58.475796
407.000000	58.318499
406.000000	58.151237
405.000000	58.015708
404.000000	57.763271
403.000000	57.584012
402.000000	57.333907
401.000000	57.062957
400.000000	56.902683
399.000000	56.735728
398.000000	56.536702
397.000000	56.253548
396.000000	56.074833
395.000000	55.819932
394.000000	55.544110
393.000000	55.251381
392.000000	55.015184
391.000000	54.747404
390.000000	54.500768
389.000000	54.274566
388.000000	53.869404
387.000000	53.657235
386.000000	53.289306
385.000000	53.051367
384.000000	52.712929
383.000000	52.411029
382.000000	52.026643
381.000000	51.705295
380.000000	51.307782
379.000000	50.871622
378.000000	50.320974
377.000000	49.951390
376.000000	49.467249
375.000000	49.062197
374.000000	48.600672
373.000000	47.884225
372.000000	47.391245
371.000000	46.715718
370.000000	45.909529
369.000000	45.001654
368.000000	44.178183
367.000000	43.077435
366.000000	41.829681
365.000000	40.570404
364.000000	39.096826
363.000000	37.461380
362.000000	35.721642
361.000000	33.711003
360.000000	31.583381
359.000000	29.241810
358.000000	26.747517
357.000000	24.096410
356.000000	21.406369
355.000000	18.581072
354.000000	15.804114
353.000000	13.041156
352.000000	10.435995
351.000000	8.048100
350.000000	5.988743
349.000000	4.245358
348.000000	2.819936
347.000000	1.766740
346.000000	1.036304
345.000000	0.540870
344.000000	0.269506
343.000000	0.122156
342.000000	0.051131
341.000000	0.033930
340.000000	0.028661
339.000000	0.021977
338.000000	0.022109
337.000000	0.025707
336.000000	0.023888
335.000000	0.020079
334.000000	0.018340
333.000000	0.030759
332.000000	0.025502
331.000000	0.018964
330.000000	0.021318
329.000000	0.023587
328.000000	0.025852
327.000000	0.035039
326.000000	0.042107
325.000000	0.046603
