PE UV       SUBTECH     SPECTRUM    ASCII       PEDS        4.00        
   -1
J15_before.Sample.Raw.asc
17/12/19
15:02:39.00
17/12/19
15:02:39.00
Administrator
longitudinal
325.000000
1
Lambda 850
850L1710193
PerkinElmer UV WinLab 6.4.0.973 / 2.02.06 Lambda 800 UV/VIS, Jan 28 2016 16:58:34

0
0
2
0
0
UV/VIS
1
1
1
RBeamAtt,SBeamAtt,60mm sphere
0
0
0
0
Fix
 
0
0.16
0
0
0
 
 
 
0
 
0
319.2
0
Front
100
 
S:100 R:100
 
0
0
0
 
0
 
 
 
0
 
 
0
0
0
0
0
 
 
 
 
0
0


0
0
#HDR
-1
-1
#GR
nm
%T
1.0
0.0
900.000000
-1.000000
576
8
79.271431
0.012824
#DATA
900.000000	71.816612
899.000000	76.105938
898.000000	79.271431
897.000000	74.789627
896.000000	73.481366
895.000000	66.775555
894.000000	68.578626
893.000000	74.863353
892.000000	74.728421
891.000000	74.461510
890.000000	75.124418
889.000000	74.346016
888.000000	77.348775
887.000000	76.090184
886.000000	77.286808
885.000000	76.364161
884.000000	75.405144
883.000000	73.740679
882.000000	76.192738
881.000000	75.677273
880.000000	75.069406
879.000000	75.517129
878.000000	77.694776
877.000000	74.599737
876.000000	75.587403
875.000000	75.509191
874.000000	74.011649
873.000000	74.109862
872.000000	75.424927
871.000000	75.151907
870.000000	74.686640
869.000000	74.960194
868.000000	75.089774
867.000000	75.160054
866.000000	74.929027
865.000000	75.585790
864.000000	75.876444
863.000000	74.569030
862.000000	75.368940
861.000000	74.630456
860.000000	73.043725
859.000000	74.632557
858.000000	75.247765
857.000000	74.584507
856.000000	74.879609
855.000000	74.977618
854.000000	74.777997
853.000000	75.135753
852.000000	74.399390
851.000000	74.549803
850.000000	74.381303
849.000000	74.545352
848.000000	74.546821
847.000000	74.791671
846.000000	74.216856
845.000000	74.334363
844.000000	74.346500
843.000000	73.952427
842.000000	74.100418
841.000000	73.718452
840.000000	74.090163
839.000000	74.116320
838.000000	73.740436
837.000000	73.854842
836.000000	73.790759
835.000000	73.823347
834.000000	73.936203
833.000000	73.627309
832.000000	73.458206
831.000000	73.510889
830.000000	73.549120
829.000000	73.598733
828.000000	73.472291
827.000000	73.551365
826.000000	73.351691
825.000000	73.588296
824.000000	73.538672
823.000000	73.446096
822.000000	73.506068
821.000000	73.494821
820.000000	73.366445
819.000000	73.565063
818.000000	73.608293
817.000000	73.373458
816.000000	73.368559
815.000000	73.371203
814.000000	73.305046
813.000000	73.007167
812.000000	73.094473
811.000000	72.942377
810.000000	72.940394
809.000000	73.266802
808.000000	73.315187
807.000000	73.209186
806.000000	73.089067
805.000000	73.066017
804.000000	73.101895
803.000000	73.117899
802.000000	73.151796
801.000000	73.247639
800.000000	73.219698
799.000000	73.089841
798.000000	73.154830
797.000000	73.181866
796.000000	73.274845
795.000000	73.321615
794.000000	73.210867
793.000000	73.193598
792.000000	73.181405
791.000000	73.157366
790.000000	73.116463
789.000000	73.134059
788.000000	73.014841
787.000000	73.029544
786.000000	73.100094
785.000000	73.023530
784.000000	73.033246
783.000000	73.050922
782.000000	73.118820
781.000000	73.089853
780.000000	72.895826
779.000000	72.785573
778.000000	72.813086
777.000000	72.878077
776.000000	72.846693
775.000000	72.851728
774.000000	72.812639
773.000000	72.746455
772.000000	72.772690
771.000000	72.835159
770.000000	72.928276
769.000000	72.831671
768.000000	72.648963
767.000000	72.656273
766.000000	72.920025
765.000000	72.964597
764.000000	72.831179
763.000000	72.810472
762.000000	72.850849
761.000000	72.776263
760.000000	72.800061
759.000000	72.833925
758.000000	72.830816
757.000000	72.681276
756.000000	72.694234
755.000000	72.745449
754.000000	72.715352
753.000000	72.623128
752.000000	72.725662
751.000000	72.745352
750.000000	72.625382
749.000000	72.635173
748.000000	72.474247
747.000000	72.503202
746.000000	72.582376
745.000000	72.491383
744.000000	72.531011
743.000000	72.580431
742.000000	72.475936
741.000000	72.465620
740.000000	72.481690
739.000000	72.364355
738.000000	72.373124
737.000000	72.532423
736.000000	72.428218
735.000000	72.375871
734.000000	72.387467
733.000000	72.332608
732.000000	72.325252
731.000000	72.420940
730.000000	72.312498
729.000000	72.356338
728.000000	72.301097
727.000000	72.317810
726.000000	72.277643
725.000000	72.155098
724.000000	72.206617
723.000000	72.294338
722.000000	72.312752
721.000000	72.215468
720.000000	72.194197
719.000000	72.223682
718.000000	72.099617
717.000000	72.098138
716.000000	72.082444
715.000000	72.044530
714.000000	72.051838
713.000000	72.001554
712.000000	71.991317
711.000000	72.160384
710.000000	72.024858
709.000000	71.945685
708.000000	71.979695
707.000000	72.027949
706.000000	72.059234
705.000000	71.941081
704.000000	71.975416
703.000000	71.983634
702.000000	71.835339
701.000000	71.880777
700.000000	71.902010
699.000000	71.824611
698.000000	71.881433
697.000000	71.834389
696.000000	71.831950
695.000000	71.779542
694.000000	71.754329
693.000000	71.684721
692.000000	71.710929
691.000000	71.774557
690.000000	71.579415
689.000000	71.566652
688.000000	71.513839
687.000000	71.503273
686.000000	71.438251
685.000000	71.388118
684.000000	71.479263
683.000000	71.517951
682.000000	71.432130
681.000000	71.377437
680.000000	71.357431
679.000000	71.352076
678.000000	71.376232
677.000000	71.374392
676.000000	71.373209
675.000000	71.398039
674.000000	71.281569
673.000000	71.262015
672.000000	71.325018
671.000000	71.333630
670.000000	71.288486
669.000000	71.233337
668.000000	71.248738
667.000000	71.150707
666.000000	71.099935
665.000000	71.126069
664.000000	71.028352
663.000000	71.135873
662.000000	71.135915
661.000000	71.116920
660.000000	71.093144
659.000000	71.012902
658.000000	70.935166
657.000000	71.063915
656.000000	70.978810
655.000000	70.952732
654.000000	70.878394
653.000000	70.978818
652.000000	70.915047
651.000000	70.861691
650.000000	70.879461
649.000000	70.764763
648.000000	70.875488
647.000000	70.784501
646.000000	70.833611
645.000000	70.724575
644.000000	70.769948
643.000000	70.721292
642.000000	70.683413
641.000000	70.709832
640.000000	70.704350
639.000000	70.596091
638.000000	70.563012
637.000000	70.512350
636.000000	70.462721
635.000000	70.660843
634.000000	70.469092
633.000000	70.508887
632.000000	70.435367
631.000000	70.450468
630.000000	70.483978
629.000000	70.438761
628.000000	70.382486
627.000000	70.289579
626.000000	70.314461
625.000000	70.363194
624.000000	70.272242
623.000000	70.241469
622.000000	70.297398
621.000000	70.244223
620.000000	70.166082
619.000000	70.152260
618.000000	70.159068
617.000000	70.132221
616.000000	70.100584
615.000000	70.077314
614.000000	70.079978
613.000000	69.976225
612.000000	69.943814
611.000000	69.982805
610.000000	69.951814
609.000000	69.921398
608.000000	69.906702
607.000000	69.805514
606.000000	69.799108
605.000000	69.800062
604.000000	69.786586
603.000000	69.721281
602.000000	69.707075
601.000000	69.704349
600.000000	69.667534
599.000000	69.663372
598.000000	69.674786
597.000000	69.599590
596.000000	69.570385
595.000000	69.497801
594.000000	69.538633
593.000000	69.519660
592.000000	69.461402
591.000000	69.384030
590.000000	69.414707
589.000000	69.354615
588.000000	69.353502
587.000000	69.333887
586.000000	69.332320
585.000000	69.321240
584.000000	69.243228
583.000000	69.195919
582.000000	69.151539
581.000000	69.103716
580.000000	69.128105
579.000000	69.098660
578.000000	69.074501
577.000000	69.032072
576.000000	68.966302
575.000000	68.971237
574.000000	68.920343
573.000000	68.910758
572.000000	68.929268
571.000000	68.932065
570.000000	68.869198
569.000000	68.784237
568.000000	68.763794
567.000000	68.777748
566.000000	68.705041
565.000000	68.682343
564.000000	68.648292
563.000000	68.614904
562.000000	68.635764
561.000000	68.583034
560.000000	68.546428
559.000000	68.520324
558.000000	68.468028
557.000000	68.387446
556.000000	68.348612
555.000000	68.359105
554.000000	68.372706
553.000000	68.355535
552.000000	68.326458
551.000000	68.295140
550.000000	68.264192
549.000000	68.219899
548.000000	68.168175
547.000000	68.156640
546.000000	68.164389
545.000000	68.102886
544.000000	68.077248
543.000000	68.044821
542.000000	67.980640
541.000000	67.957317
540.000000	67.931625
539.000000	67.872335
538.000000	67.848646
537.000000	67.817849
536.000000	67.776850
535.000000	67.775999
534.000000	67.767921
533.000000	67.745922
532.000000	67.663997
531.000000	67.623156
530.000000	67.608237
529.000000	67.560365
528.000000	67.525308
527.000000	67.493177
526.000000	67.461730
525.000000	67.430138
524.000000	67.373921
523.000000	67.342826
522.000000	67.320667
521.000000	67.264176
520.000000	67.214488
519.000000	67.212160
518.000000	67.160758
517.000000	67.111144
516.000000	67.085611
515.000000	67.031861
514.000000	66.986511
513.000000	66.967881
512.000000	66.937557
511.000000	66.897554
510.000000	66.875634
509.000000	66.818190
508.000000	66.749060
507.000000	66.720990
506.000000	66.686720
505.000000	66.639404
504.000000	66.604053
503.000000	66.557886
502.000000	66.523471
501.000000	66.467543
500.000000	66.410389
499.000000	66.375833
498.000000	66.347710
497.000000	66.304816
496.000000	66.244132
495.000000	66.188448
494.000000	66.126171
493.000000	66.077048
492.000000	66.081080
491.000000	66.038361
490.000000	66.022135
489.000000	65.992068
488.000000	65.895805
487.000000	65.820317
486.000000	65.793680
485.000000	65.747675
484.000000	65.673385
483.000000	65.612162
482.000000	65.543916
481.000000	65.510741
480.000000	65.488414
479.000000	65.445780
478.000000	65.392293
477.000000	65.322721
476.000000	65.251585
475.000000	65.160822
474.000000	65.120306
473.000000	65.102858
472.000000	65.047036
471.000000	64.974072
470.000000	64.921548
469.000000	64.846126
468.000000	64.768656
467.000000	64.719474
466.000000	64.664981
465.000000	64.609826
464.000000	64.535398
463.000000	64.462276
462.000000	64.404074
461.000000	64.339258
460.000000	64.242483
459.000000	64.185506
458.000000	64.121154
457.000000	64.081284
456.000000	64.019208
455.000000	63.902127
454.000000	63.815943
453.000000	63.720868
452.000000	63.634241
451.000000	63.584011
450.000000	63.507462
449.000000	63.386388
448.000000	63.243085
447.000000	63.223540
446.000000	63.135945
445.000000	63.046936
444.000000	62.910269
443.000000	62.820135
442.000000	62.735311
441.000000	62.641317
440.000000	62.534199
439.000000	62.452996
438.000000	62.290505
437.000000	62.203744
436.000000	62.052217
435.000000	61.981861
434.000000	61.890408
433.000000	61.806549
432.000000	61.608737
431.000000	61.481570
430.000000	61.413602
429.000000	61.272443
428.000000	61.138529
427.000000	61.007505
426.000000	60.839214
425.000000	60.727964
424.000000	60.567028
423.000000	60.393470
422.000000	60.250569
421.000000	60.085153
420.000000	59.914487
419.000000	59.728033
418.000000	59.556477
417.000000	59.431669
416.000000	59.193886
415.000000	59.062289
414.000000	58.881314
413.000000	58.659077
412.000000	58.515040
411.000000	58.254839
410.000000	58.176516
409.000000	57.907106
408.000000	57.696668
407.000000	57.503350
406.000000	57.335164
405.000000	57.092687
404.000000	56.881565
403.000000	56.623069
402.000000	56.412571
401.000000	56.227148
400.000000	56.085887
399.000000	55.848209
398.000000	55.489117
397.000000	55.378031
396.000000	55.098498
395.000000	54.905028
394.000000	54.664272
393.000000	54.477335
392.000000	54.169003
391.000000	53.940850
390.000000	53.671733
389.000000	53.374945
388.000000	53.141008
387.000000	52.963724
386.000000	52.574843
385.000000	52.238376
384.000000	51.961421
383.000000	51.705202
382.000000	51.416775
381.000000	51.079407
380.000000	50.660495
379.000000	50.170315
378.000000	49.665326
377.000000	49.488565
376.000000	48.990213
375.000000	48.449380
374.000000	47.977975
373.000000	47.403407
372.000000	46.737592
371.000000	45.973996
370.000000	45.294913
369.000000	44.478388
368.000000	43.528242
367.000000	42.444099
366.000000	41.172378
365.000000	39.858132
364.000000	38.282474
363.000000	36.537896
362.000000	34.748492
361.000000	32.692522
360.000000	30.451931
359.000000	28.060389
358.000000	25.471213
357.000000	22.718804
356.000000	19.917907
355.000000	17.055493
354.000000	14.276395
353.000000	11.577389
352.000000	9.034701
351.000000	6.800393
350.000000	4.894208
349.000000	3.346288
348.000000	2.156651
347.000000	1.293637
346.000000	0.723554
345.000000	0.370032
344.000000	0.163717
343.000000	0.078277
342.000000	0.035896
341.000000	0.017679
340.000000	0.021317
339.000000	0.015471
338.000000	0.021442
337.000000	0.012824
336.000000	0.014734
335.000000	0.021758
334.000000	0.020911
333.000000	0.020035
332.000000	0.026012
331.000000	0.036593
330.000000	0.035930
329.000000	0.030500
328.000000	0.038267
327.000000	0.036938
326.000000	0.029947
325.000000	0.029190
