PE UV       SUBTECH     SPECTRUM    ASCII       PEDS        4.00        
   -1
J23_before.Sample.Raw.asc
17/12/19
15:09:29.00
17/12/19
15:09:29.00
Administrator
longitudinal
325.000000
1
Lambda 850
850L1710193
PerkinElmer UV WinLab 6.4.0.973 / 2.02.06 Lambda 800 UV/VIS, Jan 28 2016 16:58:34

0
0
2
0
0
UV/VIS
1
1
1
RBeamAtt,SBeamAtt,60mm sphere
0
0
0
0
Fix
 
0
0.16
0
0
0
 
 
 
0
 
0
319.2
0
Front
100
 
S:100 R:100
 
0
0
0
 
0
 
 
 
0
 
 
0
0
0
0
0
 
 
 
 
0
0


0
0
#HDR
-1
-1
#GR
nm
%T
1.0
0.0
900.000000
-1.000000
576
8
77.585425
0.010894
#DATA
900.000000	72.961090
899.000000	77.585425
898.000000	77.570846
897.000000	74.938261
896.000000	72.186372
895.000000	67.588933
894.000000	72.209457
893.000000	75.695103
892.000000	72.080914
891.000000	77.394898
890.000000	76.366868
889.000000	71.559900
888.000000	74.582260
887.000000	74.865582
886.000000	75.174731
885.000000	73.054044
884.000000	71.462046
883.000000	73.032813
882.000000	74.721746
881.000000	74.426197
880.000000	73.953717
879.000000	73.741284
878.000000	76.247531
877.000000	72.273295
876.000000	74.234091
875.000000	74.018693
874.000000	73.229412
873.000000	72.337175
872.000000	73.966809
871.000000	72.637102
870.000000	72.912509
869.000000	73.156482
868.000000	72.724644
867.000000	72.400588
866.000000	73.011937
865.000000	73.190507
864.000000	74.177557
863.000000	72.938105
862.000000	73.316869
861.000000	73.145103
860.000000	71.268962
859.000000	71.988277
858.000000	72.897569
857.000000	73.063613
856.000000	72.835131
855.000000	73.002642
854.000000	72.517048
853.000000	72.622056
852.000000	72.992981
851.000000	72.973484
850.000000	72.499145
849.000000	72.617406
848.000000	72.674936
847.000000	72.734573
846.000000	72.561703
845.000000	72.527971
844.000000	72.249905
843.000000	72.194557
842.000000	72.172044
841.000000	72.127748
840.000000	72.290273
839.000000	72.036893
838.000000	71.848314
837.000000	71.911517
836.000000	71.895748
835.000000	71.937565
834.000000	71.994419
833.000000	71.817875
832.000000	71.802268
831.000000	71.656342
830.000000	71.826006
829.000000	71.700049
828.000000	71.598898
827.000000	71.700383
826.000000	71.627245
825.000000	71.986534
824.000000	71.731689
823.000000	71.658461
822.000000	71.576724
821.000000	71.466836
820.000000	71.539120
819.000000	71.672609
818.000000	71.788513
817.000000	71.612795
816.000000	71.400410
815.000000	71.463014
814.000000	71.533258
813.000000	71.240877
812.000000	71.196114
811.000000	71.225983
810.000000	71.151395
809.000000	71.362899
808.000000	71.334038
807.000000	71.310226
806.000000	71.447326
805.000000	71.375623
804.000000	71.215575
803.000000	71.229154
802.000000	71.242458
801.000000	71.319091
800.000000	71.317568
799.000000	71.311595
798.000000	71.342263
797.000000	71.345783
796.000000	71.461568
795.000000	71.488910
794.000000	71.303717
793.000000	71.249351
792.000000	71.352334
791.000000	71.330104
790.000000	71.131531
789.000000	71.193400
788.000000	71.219736
787.000000	71.255587
786.000000	71.374471
785.000000	71.303163
784.000000	71.249342
783.000000	71.197455
782.000000	71.241418
781.000000	71.091199
780.000000	70.941121
779.000000	70.957990
778.000000	71.004511
777.000000	71.092767
776.000000	71.107842
775.000000	71.011890
774.000000	70.950511
773.000000	70.976182
772.000000	70.911633
771.000000	70.882914
770.000000	71.002190
769.000000	70.907264
768.000000	70.853011
767.000000	70.922761
766.000000	70.992001
765.000000	70.886004
764.000000	70.787734
763.000000	70.826110
762.000000	70.807174
761.000000	70.751852
760.000000	70.833253
759.000000	70.847781
758.000000	70.832180
757.000000	70.715025
756.000000	70.726558
755.000000	70.761174
754.000000	70.677785
753.000000	70.625081
752.000000	70.726391
751.000000	70.753445
750.000000	70.716202
749.000000	70.720725
748.000000	70.640368
747.000000	70.571706
746.000000	70.510247
745.000000	70.475450
744.000000	70.518754
743.000000	70.574340
742.000000	70.513750
741.000000	70.474358
740.000000	70.433710
739.000000	70.502898
738.000000	70.510945
737.000000	70.556477
736.000000	70.482967
735.000000	70.487135
734.000000	70.472936
733.000000	70.433248
732.000000	70.385689
731.000000	70.456378
730.000000	70.404951
729.000000	70.393481
728.000000	70.273817
727.000000	70.217946
726.000000	70.251115
725.000000	70.219771
724.000000	70.244291
723.000000	70.326599
722.000000	70.344224
721.000000	70.187054
720.000000	70.153311
719.000000	70.252524
718.000000	70.165958
717.000000	70.139392
716.000000	70.106364
715.000000	70.014657
714.000000	70.073822
713.000000	70.113892
712.000000	70.034212
711.000000	70.098082
710.000000	70.042214
709.000000	69.945379
708.000000	70.088758
707.000000	70.077287
706.000000	70.013052
705.000000	69.863124
704.000000	69.924179
703.000000	69.982330
702.000000	69.874677
701.000000	69.876453
700.000000	69.908101
699.000000	69.868878
698.000000	69.828577
697.000000	69.803499
696.000000	69.767226
695.000000	69.782996
694.000000	69.744946
693.000000	69.752462
692.000000	69.678727
691.000000	69.725227
690.000000	69.512637
689.000000	69.535656
688.000000	69.420364
687.000000	69.388385
686.000000	69.452049
685.000000	69.436612
684.000000	69.482250
683.000000	69.441124
682.000000	69.445432
681.000000	69.377929
680.000000	69.383698
679.000000	69.346314
678.000000	69.337768
677.000000	69.374175
676.000000	69.313761
675.000000	69.368094
674.000000	69.291693
673.000000	69.254933
672.000000	69.315817
671.000000	69.223990
670.000000	69.255603
669.000000	69.196213
668.000000	69.192467
667.000000	69.177143
666.000000	69.157140
665.000000	69.053796
664.000000	69.122819
663.000000	69.107343
662.000000	69.120276
661.000000	69.073691
660.000000	68.998161
659.000000	68.949570
658.000000	68.916671
657.000000	68.912455
656.000000	68.912143
655.000000	68.824531
654.000000	68.811575
653.000000	68.909583
652.000000	68.826724
651.000000	68.901485
650.000000	68.820455
649.000000	68.724985
648.000000	68.768166
647.000000	68.740539
646.000000	68.833215
645.000000	68.737781
644.000000	68.755501
643.000000	68.698147
642.000000	68.661821
641.000000	68.655240
640.000000	68.645345
639.000000	68.584702
638.000000	68.531900
637.000000	68.528216
636.000000	68.550001
635.000000	68.524524
634.000000	68.492728
633.000000	68.483815
632.000000	68.472615
631.000000	68.419096
630.000000	68.410889
629.000000	68.422435
628.000000	68.315326
627.000000	68.285800
626.000000	68.317557
625.000000	68.330932
624.000000	68.266276
623.000000	68.188995
622.000000	68.282400
621.000000	68.209479
620.000000	68.153761
619.000000	68.113169
618.000000	68.158363
617.000000	68.097531
616.000000	68.076335
615.000000	68.081462
614.000000	68.093190
613.000000	67.998695
612.000000	68.022735
611.000000	67.950733
610.000000	67.965609
609.000000	67.981269
608.000000	67.962438
607.000000	67.906306
606.000000	67.833837
605.000000	67.805891
604.000000	67.894241
603.000000	67.801487
602.000000	67.791514
601.000000	67.744769
600.000000	67.747157
599.000000	67.771064
598.000000	67.724614
597.000000	67.670117
596.000000	67.592657
595.000000	67.596417
594.000000	67.606829
593.000000	67.569079
592.000000	67.555080
591.000000	67.519899
590.000000	67.500091
589.000000	67.428896
588.000000	67.429282
587.000000	67.452549
586.000000	67.395628
585.000000	67.386108
584.000000	67.301102
583.000000	67.274768
582.000000	67.265413
581.000000	67.253713
580.000000	67.233991
579.000000	67.232707
578.000000	67.176986
577.000000	67.122652
576.000000	67.121816
575.000000	67.090474
574.000000	67.074831
573.000000	67.089719
572.000000	67.064680
571.000000	67.033991
570.000000	66.983933
569.000000	66.934697
568.000000	66.917063
567.000000	66.919781
566.000000	66.877770
565.000000	66.837929
564.000000	66.798113
563.000000	66.746765
562.000000	66.745906
561.000000	66.714207
560.000000	66.668459
559.000000	66.626105
558.000000	66.636138
557.000000	66.572464
556.000000	66.551549
555.000000	66.529839
554.000000	66.543680
553.000000	66.522929
552.000000	66.482958
551.000000	66.454242
550.000000	66.445209
549.000000	66.393128
548.000000	66.355600
547.000000	66.348810
546.000000	66.332982
545.000000	66.289243
544.000000	66.243940
543.000000	66.179211
542.000000	66.131848
541.000000	66.121107
540.000000	66.106601
539.000000	66.055178
538.000000	66.051314
537.000000	66.032322
536.000000	66.002569
535.000000	65.987901
534.000000	65.941531
533.000000	65.926149
532.000000	65.867730
531.000000	65.840572
530.000000	65.819107
529.000000	65.796464
528.000000	65.773023
527.000000	65.727486
526.000000	65.679442
525.000000	65.652588
524.000000	65.638686
523.000000	65.589810
522.000000	65.541727
521.000000	65.513053
520.000000	65.475720
519.000000	65.463884
518.000000	65.422179
517.000000	65.367638
516.000000	65.347235
515.000000	65.299828
514.000000	65.257382
513.000000	65.251098
512.000000	65.225577
511.000000	65.186416
510.000000	65.158606
509.000000	65.115182
508.000000	65.058615
507.000000	65.023555
506.000000	64.981051
505.000000	64.936589
504.000000	64.906391
503.000000	64.859103
502.000000	64.803368
501.000000	64.767965
500.000000	64.724445
499.000000	64.675288
498.000000	64.621895
497.000000	64.544642
496.000000	64.484144
495.000000	64.421965
494.000000	64.349530
493.000000	64.291690
492.000000	64.276765
491.000000	64.248520
490.000000	64.191995
489.000000	64.125876
488.000000	64.063835
487.000000	63.971798
486.000000	63.958348
485.000000	63.925580
484.000000	63.839848
483.000000	63.774041
482.000000	63.762281
481.000000	63.684248
480.000000	63.627728
479.000000	63.568503
478.000000	63.545368
477.000000	63.512754
476.000000	63.468700
475.000000	63.378092
474.000000	63.335072
473.000000	63.318833
472.000000	63.256330
471.000000	63.197896
470.000000	63.172873
469.000000	63.125668
468.000000	63.025657
467.000000	62.955174
466.000000	62.928499
465.000000	62.878090
464.000000	62.773357
463.000000	62.717740
462.000000	62.659879
461.000000	62.613270
460.000000	62.499310
459.000000	62.428414
458.000000	62.358626
457.000000	62.300468
456.000000	62.195162
455.000000	62.105585
454.000000	62.011086
453.000000	61.948173
452.000000	61.843085
451.000000	61.745321
450.000000	61.690793
449.000000	61.557708
448.000000	61.417354
447.000000	61.362705
446.000000	61.263188
445.000000	61.168633
444.000000	61.022679
443.000000	60.925915
442.000000	60.853344
441.000000	60.738148
440.000000	60.629914
439.000000	60.521984
438.000000	60.359180
437.000000	60.236550
436.000000	60.111451
435.000000	59.961975
434.000000	59.873891
433.000000	59.763791
432.000000	59.632571
431.000000	59.455267
430.000000	59.324254
429.000000	59.149630
428.000000	59.084750
427.000000	58.900736
426.000000	58.697088
425.000000	58.586909
424.000000	58.410336
423.000000	58.147629
422.000000	58.029058
421.000000	57.838673
420.000000	57.728420
419.000000	57.482249
418.000000	57.280729
417.000000	57.081293
416.000000	56.879305
415.000000	56.663527
414.000000	56.418710
413.000000	56.186068
412.000000	55.980488
411.000000	55.666055
410.000000	55.466073
409.000000	55.146178
408.000000	54.877282
407.000000	54.638293
406.000000	54.360341
405.000000	54.119397
404.000000	53.753898
403.000000	53.520140
402.000000	53.080584
401.000000	52.802529
400.000000	52.518203
399.000000	52.175464
398.000000	51.824904
397.000000	51.456038
396.000000	51.071910
395.000000	50.850853
394.000000	50.386646
393.000000	50.011966
392.000000	49.664545
391.000000	49.233136
390.000000	48.822480
389.000000	48.416813
388.000000	48.014008
387.000000	47.657493
386.000000	47.166087
385.000000	46.702833
384.000000	46.358405
383.000000	45.917986
382.000000	45.564897
381.000000	45.050417
380.000000	44.686611
379.000000	44.158939
378.000000	43.496136
377.000000	43.158129
376.000000	42.697821
375.000000	42.253218
374.000000	41.759943
373.000000	41.187145
372.000000	40.657025
371.000000	40.131498
370.000000	39.367404
369.000000	38.589451
368.000000	37.841093
367.000000	36.973592
366.000000	35.825808
365.000000	34.715525
364.000000	33.358758
363.000000	32.003332
362.000000	30.390892
361.000000	28.635250
360.000000	26.748122
359.000000	24.716607
358.000000	22.540223
357.000000	20.103216
356.000000	17.614845
355.000000	15.149296
354.000000	12.623608
353.000000	10.171614
352.000000	7.955664
351.000000	5.939555
350.000000	4.243278
349.000000	2.859948
348.000000	1.812524
347.000000	1.066867
346.000000	0.570674
345.000000	0.274518
344.000000	0.128280
343.000000	0.056226
342.000000	0.025013
341.000000	0.010894
340.000000	0.019788
339.000000	0.022157
338.000000	0.024409
337.000000	0.017322
336.000000	0.026788
335.000000	0.017253
334.000000	0.016882
333.000000	0.012942
332.000000	0.027452
331.000000	0.021130
330.000000	0.022000
329.000000	0.022899
328.000000	0.030652
327.000000	0.030573
326.000000	0.026673
325.000000	0.030057
