PE UV       SUBTECH     SPECTRUM    ASCII       PEDS        4.00        
   -1
J34_before.Sample.Raw.asc
17/12/19
15:25:22.00
17/12/19
15:25:22.00
Administrator
longitudinal
325.000000
1
Lambda 850
850L1710193
PerkinElmer UV WinLab 6.4.0.973 / 2.02.06 Lambda 800 UV/VIS, Jan 28 2016 16:58:34

0
0
2
0
0
UV/VIS
1
1
1
RBeamAtt,SBeamAtt,60mm sphere
0
0
0
0
Fix
 
0
0.16
0
0
0
 
 
 
0
 
0
319.2
0
Front
100
 
S:100 R:100
 
0
0
0
 
0
 
 
 
0
 
 
0
0
0
0
0
 
 
 
 
0
0


0
0
#HDR
-1
-1
#GR
nm
%T
1.0
0.0
900.000000
-1.000000
576
8
82.149740
0.008792
#DATA
900.000000	72.681204
899.000000	77.812010
898.000000	82.149740
897.000000	73.695369
896.000000	72.249454
895.000000	72.773366
894.000000	75.448075
893.000000	77.352468
892.000000	74.701110
891.000000	80.283426
890.000000	75.483744
889.000000	71.418352
888.000000	78.333569
887.000000	76.094131
886.000000	77.565262
885.000000	76.391629
884.000000	74.885342
883.000000	78.819684
882.000000	76.749864
881.000000	77.506562
880.000000	76.771455
879.000000	74.478796
878.000000	77.720782
877.000000	75.801658
876.000000	77.018641
875.000000	75.915308
874.000000	75.715445
873.000000	75.160293
872.000000	75.977404
871.000000	75.244518
870.000000	74.924531
869.000000	75.441445
868.000000	76.755076
867.000000	75.218471
866.000000	74.991822
865.000000	76.019566
864.000000	75.625805
863.000000	75.298781
862.000000	75.264118
861.000000	74.968274
860.000000	73.873187
859.000000	74.661220
858.000000	75.295543
857.000000	75.437909
856.000000	75.634584
855.000000	75.699815
854.000000	75.056658
853.000000	75.201053
852.000000	75.064332
851.000000	75.399353
850.000000	75.270963
849.000000	75.215990
848.000000	74.896058
847.000000	75.079698
846.000000	75.053040
845.000000	74.880375
844.000000	74.896556
843.000000	74.552336
842.000000	74.746212
841.000000	74.534698
840.000000	74.630055
839.000000	74.358744
838.000000	74.769629
837.000000	74.637189
836.000000	74.268097
835.000000	74.529115
834.000000	74.543078
833.000000	74.179674
832.000000	74.072829
831.000000	74.107047
830.000000	74.094041
829.000000	74.196139
828.000000	74.123021
827.000000	74.229337
826.000000	74.044776
825.000000	74.072048
824.000000	74.179192
823.000000	74.196897
822.000000	74.257859
821.000000	74.045417
820.000000	73.784134
819.000000	73.958927
818.000000	74.120376
817.000000	73.969036
816.000000	74.094149
815.000000	74.033706
814.000000	73.971637
813.000000	73.813875
812.000000	73.807071
811.000000	73.780790
810.000000	73.709619
809.000000	73.815653
808.000000	73.871571
807.000000	73.865516
806.000000	73.919007
805.000000	73.809780
804.000000	73.705166
803.000000	73.719002
802.000000	73.824277
801.000000	73.925014
800.000000	73.776240
799.000000	73.714224
798.000000	73.923521
797.000000	73.923736
796.000000	73.914625
795.000000	74.131648
794.000000	73.967975
793.000000	73.797650
792.000000	73.891847
791.000000	73.842475
790.000000	73.751728
789.000000	73.814837
788.000000	73.758662
787.000000	73.644931
786.000000	73.716203
785.000000	73.755911
784.000000	73.770477
783.000000	73.754130
782.000000	73.900222
781.000000	73.742081
780.000000	73.536595
779.000000	73.672386
778.000000	73.498504
777.000000	73.514056
776.000000	73.746521
775.000000	73.558890
774.000000	73.476118
773.000000	73.516732
772.000000	73.466168
771.000000	73.527557
770.000000	73.609806
769.000000	73.521520
768.000000	73.454799
767.000000	73.559519
766.000000	73.627733
765.000000	73.553766
764.000000	73.502930
763.000000	73.561786
762.000000	73.485803
761.000000	73.414256
760.000000	73.510072
759.000000	73.433753
758.000000	73.437733
757.000000	73.397538
756.000000	73.419411
755.000000	73.481049
754.000000	73.403587
753.000000	73.331205
752.000000	73.428807
751.000000	73.429374
750.000000	73.371062
749.000000	73.394448
748.000000	73.410984
747.000000	73.453330
746.000000	73.331069
745.000000	73.196280
744.000000	73.182580
743.000000	73.304836
742.000000	73.283616
741.000000	73.270437
740.000000	73.286544
739.000000	73.262492
738.000000	73.215056
737.000000	73.292578
736.000000	73.182014
735.000000	73.091271
734.000000	73.189874
733.000000	73.114962
732.000000	73.106729
731.000000	73.147793
730.000000	73.093133
729.000000	73.077188
728.000000	73.056015
727.000000	73.031739
726.000000	73.060459
725.000000	73.056040
724.000000	73.022820
723.000000	73.051724
722.000000	73.103351
721.000000	73.026390
720.000000	72.958411
719.000000	72.960616
718.000000	72.929278
717.000000	72.892436
716.000000	72.833783
715.000000	72.819695
714.000000	72.907240
713.000000	72.903295
712.000000	72.784556
711.000000	72.725859
710.000000	72.829728
709.000000	72.680932
708.000000	72.799326
707.000000	72.813573
706.000000	72.797220
705.000000	72.699307
704.000000	72.781550
703.000000	72.809388
702.000000	72.730098
701.000000	72.740006
700.000000	72.727397
699.000000	72.678766
698.000000	72.714189
697.000000	72.664210
696.000000	72.700680
695.000000	72.634395
694.000000	72.628537
693.000000	72.577166
692.000000	72.637435
691.000000	72.579479
690.000000	72.345997
689.000000	72.450705
688.000000	72.330673
687.000000	72.363124
686.000000	72.346699
685.000000	72.279760
684.000000	72.373996
683.000000	72.386918
682.000000	72.317903
681.000000	72.270824
680.000000	72.306843
679.000000	72.298754
678.000000	72.208707
677.000000	72.262823
676.000000	72.281912
675.000000	72.285053
674.000000	72.263512
673.000000	72.123595
672.000000	72.300280
671.000000	72.236777
670.000000	72.196364
669.000000	72.183920
668.000000	72.101662
667.000000	72.103592
666.000000	72.086755
665.000000	72.064172
664.000000	72.130194
663.000000	72.134653
662.000000	72.081533
661.000000	72.038753
660.000000	71.972564
659.000000	71.942988
658.000000	71.882521
657.000000	71.981493
656.000000	71.889083
655.000000	71.979934
654.000000	71.869108
653.000000	71.930337
652.000000	71.941677
651.000000	71.862994
650.000000	71.907580
649.000000	71.811125
648.000000	71.879856
647.000000	71.803111
646.000000	71.843844
645.000000	71.704883
644.000000	71.776652
643.000000	71.771500
642.000000	71.702555
641.000000	71.759018
640.000000	71.703914
639.000000	71.651303
638.000000	71.620816
637.000000	71.566071
636.000000	71.550315
635.000000	71.680715
634.000000	71.621770
633.000000	71.623019
632.000000	71.548109
631.000000	71.502411
630.000000	71.547336
629.000000	71.544374
628.000000	71.429314
627.000000	71.391042
626.000000	71.483653
625.000000	71.483830
624.000000	71.355803
623.000000	71.420735
622.000000	71.425474
621.000000	71.354840
620.000000	71.373613
619.000000	71.340790
618.000000	71.317603
617.000000	71.221672
616.000000	71.299849
615.000000	71.298202
614.000000	71.297357
613.000000	71.245630
612.000000	71.216348
611.000000	71.217421
610.000000	71.222033
609.000000	71.189410
608.000000	71.161558
607.000000	71.144411
606.000000	71.118921
605.000000	71.094810
604.000000	71.071570
603.000000	71.015209
602.000000	71.063959
601.000000	70.979512
600.000000	71.000699
599.000000	71.032820
598.000000	70.961112
597.000000	70.944453
596.000000	70.913702
595.000000	70.883049
594.000000	70.923932
593.000000	70.864202
592.000000	70.813520
591.000000	70.850968
590.000000	70.777710
589.000000	70.734234
588.000000	70.773424
587.000000	70.770032
586.000000	70.754369
585.000000	70.715942
584.000000	70.629306
583.000000	70.655500
582.000000	70.611250
581.000000	70.628230
580.000000	70.620210
579.000000	70.600444
578.000000	70.563581
577.000000	70.567656
576.000000	70.496033
575.000000	70.492460
574.000000	70.470243
573.000000	70.504351
572.000000	70.467229
571.000000	70.419529
570.000000	70.413820
569.000000	70.328561
568.000000	70.298407
567.000000	70.346082
566.000000	70.297135
565.000000	70.303421
564.000000	70.259887
563.000000	70.248396
562.000000	70.204466
561.000000	70.178763
560.000000	70.156401
559.000000	70.140124
558.000000	70.114144
557.000000	70.045047
556.000000	70.068784
555.000000	70.058161
554.000000	70.016038
553.000000	69.989441
552.000000	69.984343
551.000000	70.019422
550.000000	69.966187
549.000000	69.929105
548.000000	69.881510
547.000000	69.838645
546.000000	69.858472
545.000000	69.833319
544.000000	69.801222
543.000000	69.771339
542.000000	69.702936
541.000000	69.659091
540.000000	69.646275
539.000000	69.645613
538.000000	69.663893
537.000000	69.628384
536.000000	69.598367
535.000000	69.579755
534.000000	69.545353
533.000000	69.539838
532.000000	69.475474
531.000000	69.436588
530.000000	69.412834
529.000000	69.389053
528.000000	69.354016
527.000000	69.314729
526.000000	69.293395
525.000000	69.276553
524.000000	69.258850
523.000000	69.217484
522.000000	69.190104
521.000000	69.157805
520.000000	69.108933
519.000000	69.084827
518.000000	69.058245
517.000000	69.000488
516.000000	68.967837
515.000000	68.937927
514.000000	68.878702
513.000000	68.863074
512.000000	68.854784
511.000000	68.829719
510.000000	68.804292
509.000000	68.762185
508.000000	68.701062
507.000000	68.663272
506.000000	68.628487
505.000000	68.578999
504.000000	68.544364
503.000000	68.506364
502.000000	68.471246
501.000000	68.432071
500.000000	68.387956
499.000000	68.346729
498.000000	68.285214
497.000000	68.229309
496.000000	68.189920
495.000000	68.181335
494.000000	68.119468
493.000000	68.051143
492.000000	68.041926
491.000000	68.002301
490.000000	67.946525
489.000000	67.888046
488.000000	67.840316
487.000000	67.819529
486.000000	67.771395
485.000000	67.739550
484.000000	67.649230
483.000000	67.559856
482.000000	67.501312
481.000000	67.467229
480.000000	67.409086
479.000000	67.389707
478.000000	67.357847
477.000000	67.339116
476.000000	67.298325
475.000000	67.219742
474.000000	67.180772
473.000000	67.142337
472.000000	67.114336
471.000000	67.073385
470.000000	67.007120
469.000000	66.935389
468.000000	66.877881
467.000000	66.828761
466.000000	66.751473
465.000000	66.721688
464.000000	66.657658
463.000000	66.631770
462.000000	66.551273
461.000000	66.514998
460.000000	66.421559
459.000000	66.380512
458.000000	66.313541
457.000000	66.288646
456.000000	66.227966
455.000000	66.132393
454.000000	66.084569
453.000000	65.997801
452.000000	65.868403
451.000000	65.806329
450.000000	65.797239
449.000000	65.684853
448.000000	65.599113
447.000000	65.566654
446.000000	65.463309
445.000000	65.369453
444.000000	65.274000
443.000000	65.206592
442.000000	65.096205
441.000000	65.027076
440.000000	65.002288
439.000000	64.872755
438.000000	64.773251
437.000000	64.685207
436.000000	64.589342
435.000000	64.504662
434.000000	64.425635
433.000000	64.309688
432.000000	64.183210
431.000000	64.103274
430.000000	64.051635
429.000000	63.944349
428.000000	63.861076
427.000000	63.632544
426.000000	63.574913
425.000000	63.421860
424.000000	63.239824
423.000000	63.088743
422.000000	63.062509
421.000000	62.913389
420.000000	62.809674
419.000000	62.585496
418.000000	62.482879
417.000000	62.393542
416.000000	62.188013
415.000000	62.067441
414.000000	61.863185
413.000000	61.673547
412.000000	61.511970
411.000000	61.291244
410.000000	61.184490
409.000000	60.929776
408.000000	60.775407
407.000000	60.624948
406.000000	60.395754
405.000000	60.187404
404.000000	60.018375
403.000000	59.718919
402.000000	59.496519
401.000000	59.270100
400.000000	59.114649
399.000000	58.855699
398.000000	58.515744
397.000000	58.314488
396.000000	58.012848
395.000000	57.750906
394.000000	57.506182
393.000000	57.272469
392.000000	56.946977
391.000000	56.565264
390.000000	56.320768
389.000000	56.019263
388.000000	55.682025
387.000000	55.360008
386.000000	54.920021
385.000000	54.561709
384.000000	54.212796
383.000000	53.833131
382.000000	53.490085
381.000000	52.914525
380.000000	52.460489
379.000000	51.870192
378.000000	51.260398
377.000000	50.792961
376.000000	50.168313
375.000000	49.349330
374.000000	48.653443
373.000000	47.911773
372.000000	47.126590
371.000000	46.012099
370.000000	44.724659
369.000000	43.533381
368.000000	42.160487
367.000000	40.583984
366.000000	38.739526
365.000000	36.803472
364.000000	34.703415
363.000000	32.228494
362.000000	29.689694
361.000000	27.028494
360.000000	24.168537
359.000000	21.308792
358.000000	18.308666
357.000000	15.321278
356.000000	12.475495
355.000000	9.803858
354.000000	7.420262
353.000000	5.355808
352.000000	3.666977
351.000000	2.372343
350.000000	1.450150
349.000000	0.819645
348.000000	0.425160
347.000000	0.199424
346.000000	0.100297
345.000000	0.041698
344.000000	0.029324
343.000000	0.022147
342.000000	0.018998
341.000000	0.008792
340.000000	0.019788
339.000000	0.023303
338.000000	0.024313
337.000000	0.014738
336.000000	0.015595
335.000000	0.022717
334.000000	0.013813
333.000000	0.012654
332.000000	0.023421
331.000000	0.032560
330.000000	0.023537
329.000000	0.021744
328.000000	0.032291
327.000000	0.033466
326.000000	0.022629
325.000000	0.034873
