PE UV       SUBTECH     SPECTRUM    ASCII       PEDS        4.00        
   -1
J38_before.Sample.Raw.asc
17/12/19
15:35:26.00
17/12/19
15:35:26.00
Administrator
longitudinal
325.000000
1
Lambda 850
850L1710193
PerkinElmer UV WinLab 6.4.0.973 / 2.02.06 Lambda 800 UV/VIS, Jan 28 2016 16:58:34

0
0
2
0
0
UV/VIS
1
1
1
RBeamAtt,SBeamAtt,60mm sphere
0
0
0
0
Fix
 
0
0.16
0
0
0
 
 
 
0
 
0
319.2
0
Front
100
 
S:100 R:100
 
0
0
0
 
0
 
 
 
0
 
 
0
0
0
0
0
 
 
 
 
0
0


0
0
#HDR
-1
-1
#GR
nm
%T
1.0
0.0
900.000000
-1.000000
576
8
78.689278
0.015911
#DATA
900.000000	74.939761
899.000000	74.985115
898.000000	76.345386
897.000000	74.350301
896.000000	72.786171
895.000000	72.752717
894.000000	73.714563
893.000000	78.689278
892.000000	75.846486
891.000000	76.449510
890.000000	78.644783
889.000000	72.333236
888.000000	73.585927
887.000000	73.572226
886.000000	77.987893
885.000000	74.635195
884.000000	71.061696
883.000000	74.884396
882.000000	76.934070
881.000000	74.283259
880.000000	74.106179
879.000000	75.446964
878.000000	76.097243
877.000000	73.562953
876.000000	75.116134
875.000000	73.742773
874.000000	73.509082
873.000000	74.542568
872.000000	73.993309
871.000000	74.473621
870.000000	74.007697
869.000000	73.540137
868.000000	74.502956
867.000000	73.567496
866.000000	73.732774
865.000000	74.669632
864.000000	74.670796
863.000000	73.724460
862.000000	74.548809
861.000000	73.422720
860.000000	72.045551
859.000000	73.222375
858.000000	73.780788
857.000000	74.107064
856.000000	73.810973
855.000000	74.102839
854.000000	73.821960
853.000000	73.851809
852.000000	73.865879
851.000000	73.936403
850.000000	73.765874
849.000000	73.296088
848.000000	73.253482
847.000000	73.757925
846.000000	73.391285
845.000000	73.474363
844.000000	73.393274
843.000000	73.099372
842.000000	73.281872
841.000000	73.149697
840.000000	73.052772
839.000000	73.091940
838.000000	73.126197
837.000000	72.936955
836.000000	72.824228
835.000000	72.928064
834.000000	73.076041
833.000000	72.947374
832.000000	72.989622
831.000000	72.892707
830.000000	72.984556
829.000000	72.766537
828.000000	72.641208
827.000000	72.727160
826.000000	72.747391
825.000000	72.909368
824.000000	72.607322
823.000000	72.647526
822.000000	72.625388
821.000000	72.505453
820.000000	72.551332
819.000000	72.658843
818.000000	72.643584
817.000000	72.554414
816.000000	72.395482
815.000000	72.439151
814.000000	72.438247
813.000000	72.340371
812.000000	72.391956
811.000000	72.299235
810.000000	72.277496
809.000000	72.328041
808.000000	72.268378
807.000000	72.293106
806.000000	72.357444
805.000000	72.352961
804.000000	72.249341
803.000000	72.315047
802.000000	72.171985
801.000000	72.303724
800.000000	72.446823
799.000000	72.336983
798.000000	72.405480
797.000000	72.297814
796.000000	72.417791
795.000000	72.540296
794.000000	72.229320
793.000000	72.088012
792.000000	72.288614
791.000000	72.345536
790.000000	72.233643
789.000000	72.287538
788.000000	72.170918
787.000000	72.185072
786.000000	72.378868
785.000000	72.219202
784.000000	72.042744
783.000000	72.046624
782.000000	72.152817
781.000000	72.127906
780.000000	71.904064
779.000000	71.972480
778.000000	72.101398
777.000000	71.999770
776.000000	72.015690
775.000000	71.979835
774.000000	71.914319
773.000000	71.905341
772.000000	71.841033
771.000000	71.919712
770.000000	72.125391
769.000000	72.016951
768.000000	71.883382
767.000000	71.899574
766.000000	72.002522
765.000000	72.060981
764.000000	71.918954
763.000000	71.909970
762.000000	71.908119
761.000000	71.851648
760.000000	71.898144
759.000000	71.906520
758.000000	71.910433
757.000000	71.804854
756.000000	71.851365
755.000000	71.860655
754.000000	71.853016
753.000000	71.823741
752.000000	71.851203
751.000000	71.835038
750.000000	71.753706
749.000000	71.718704
748.000000	71.694028
747.000000	71.717297
746.000000	71.676374
745.000000	71.675734
744.000000	71.655323
743.000000	71.731443
742.000000	71.592546
741.000000	71.597495
740.000000	71.569934
739.000000	71.606059
738.000000	71.572191
737.000000	71.573213
736.000000	71.536874
735.000000	71.543443
734.000000	71.521182
733.000000	71.429481
732.000000	71.440076
731.000000	71.508081
730.000000	71.412531
729.000000	71.436899
728.000000	71.446566
727.000000	71.397142
726.000000	71.414623
725.000000	71.383944
724.000000	71.404459
723.000000	71.386616
722.000000	71.428559
721.000000	71.342776
720.000000	71.363189
719.000000	71.377243
718.000000	71.247876
717.000000	71.287461
716.000000	71.188684
715.000000	71.117334
714.000000	71.208982
713.000000	71.257929
712.000000	71.212333
711.000000	71.199127
710.000000	71.217852
709.000000	71.090643
708.000000	71.228266
707.000000	71.199521
706.000000	71.225414
705.000000	71.091124
704.000000	71.142409
703.000000	71.096383
702.000000	70.982189
701.000000	71.034141
700.000000	71.054163
699.000000	70.934987
698.000000	70.962991
697.000000	70.995133
696.000000	70.945120
695.000000	70.943737
694.000000	70.933327
693.000000	70.864114
692.000000	70.865351
691.000000	70.850056
690.000000	70.702439
689.000000	70.740667
688.000000	70.588397
687.000000	70.646767
686.000000	70.559306
685.000000	70.549920
684.000000	70.550024
683.000000	70.558550
682.000000	70.509854
681.000000	70.544194
680.000000	70.522443
679.000000	70.513678
678.000000	70.449454
677.000000	70.507815
676.000000	70.505117
675.000000	70.553736
674.000000	70.470971
673.000000	70.398543
672.000000	70.519321
671.000000	70.449351
670.000000	70.393187
669.000000	70.352542
668.000000	70.283372
667.000000	70.323673
666.000000	70.326022
665.000000	70.248897
664.000000	70.320597
663.000000	70.267612
662.000000	70.225582
661.000000	70.189912
660.000000	70.133784
659.000000	70.106874
658.000000	70.112459
657.000000	70.133822
656.000000	70.072335
655.000000	70.138894
654.000000	70.000414
653.000000	70.057690
652.000000	70.027799
651.000000	70.066348
650.000000	70.036268
649.000000	69.964554
648.000000	70.017183
647.000000	69.901787
646.000000	70.008331
645.000000	69.842669
644.000000	69.924845
643.000000	69.879101
642.000000	69.845991
641.000000	69.815782
640.000000	69.834144
639.000000	69.845593
638.000000	69.707411
637.000000	69.701437
636.000000	69.738033
635.000000	69.754694
634.000000	69.650510
633.000000	69.664003
632.000000	69.636519
631.000000	69.637555
630.000000	69.662591
629.000000	69.628834
628.000000	69.542080
627.000000	69.460776
626.000000	69.485363
625.000000	69.506789
624.000000	69.462820
623.000000	69.459161
622.000000	69.473345
621.000000	69.405061
620.000000	69.417217
619.000000	69.443373
618.000000	69.415590
617.000000	69.347326
616.000000	69.319751
615.000000	69.328989
614.000000	69.299461
613.000000	69.215277
612.000000	69.222639
611.000000	69.281301
610.000000	69.224808
609.000000	69.267859
608.000000	69.242207
607.000000	69.112329
606.000000	69.050036
605.000000	69.094909
604.000000	69.115302
603.000000	69.048012
602.000000	69.027547
601.000000	68.976440
600.000000	69.037163
599.000000	69.013315
598.000000	68.976788
597.000000	68.968854
596.000000	68.908451
595.000000	68.873124
594.000000	68.877403
593.000000	68.841005
592.000000	68.808273
591.000000	68.736573
590.000000	68.675837
589.000000	68.655080
588.000000	68.702103
587.000000	68.682525
586.000000	68.698579
585.000000	68.663564
584.000000	68.571768
583.000000	68.557504
582.000000	68.509919
581.000000	68.517018
580.000000	68.534478
579.000000	68.562228
578.000000	68.475272
577.000000	68.471056
576.000000	68.417847
575.000000	68.415853
574.000000	68.361868
573.000000	68.374866
572.000000	68.338506
571.000000	68.331013
570.000000	68.278461
569.000000	68.223936
568.000000	68.216022
567.000000	68.226653
566.000000	68.153079
565.000000	68.109962
564.000000	68.066303
563.000000	68.061919
562.000000	68.080189
561.000000	68.080822
560.000000	68.018068
559.000000	67.963420
558.000000	67.938287
557.000000	67.866775
556.000000	67.891523
555.000000	67.893401
554.000000	67.867812
553.000000	67.852455
552.000000	67.788424
551.000000	67.762431
550.000000	67.772047
549.000000	67.742355
548.000000	67.713753
547.000000	67.690428
546.000000	67.686966
545.000000	67.634220
544.000000	67.574239
543.000000	67.538081
542.000000	67.512576
541.000000	67.499909
540.000000	67.497920
539.000000	67.431634
538.000000	67.413398
537.000000	67.387973
536.000000	67.352075
535.000000	67.341540
534.000000	67.305247
533.000000	67.260776
532.000000	67.209594
531.000000	67.183408
530.000000	67.153221
529.000000	67.118181
528.000000	67.079897
527.000000	67.069950
526.000000	67.059450
525.000000	67.010734
524.000000	66.966600
523.000000	66.918116
522.000000	66.915724
521.000000	66.879792
520.000000	66.812829
519.000000	66.785076
518.000000	66.745114
517.000000	66.709699
516.000000	66.693174
515.000000	66.620402
514.000000	66.564728
513.000000	66.552226
512.000000	66.504883
511.000000	66.452550
510.000000	66.420574
509.000000	66.382847
508.000000	66.344441
507.000000	66.302000
506.000000	66.246268
505.000000	66.173376
504.000000	66.134541
503.000000	66.090543
502.000000	66.048351
501.000000	66.006516
500.000000	65.932738
499.000000	65.873865
498.000000	65.800312
497.000000	65.727802
496.000000	65.661135
495.000000	65.594345
494.000000	65.535158
493.000000	65.482397
492.000000	65.401786
491.000000	65.371611
490.000000	65.361938
489.000000	65.302255
488.000000	65.201750
487.000000	65.134684
486.000000	65.116797
485.000000	65.046473
484.000000	64.981103
483.000000	64.923508
482.000000	64.893620
481.000000	64.838529
480.000000	64.767892
479.000000	64.714441
478.000000	64.697479
477.000000	64.678673
476.000000	64.653536
475.000000	64.579079
474.000000	64.525488
473.000000	64.481465
472.000000	64.425806
471.000000	64.356407
470.000000	64.328768
469.000000	64.292657
468.000000	64.220273
467.000000	64.151158
466.000000	64.089691
465.000000	64.017163
464.000000	63.943634
463.000000	63.928612
462.000000	63.849572
461.000000	63.782081
460.000000	63.707153
459.000000	63.649031
458.000000	63.623016
457.000000	63.554292
456.000000	63.486144
455.000000	63.394287
454.000000	63.292906
453.000000	63.210483
452.000000	63.135235
451.000000	63.047723
450.000000	63.003539
449.000000	62.921868
448.000000	62.788582
447.000000	62.779878
446.000000	62.715749
445.000000	62.591675
444.000000	62.471663
443.000000	62.396507
442.000000	62.299996
441.000000	62.220023
440.000000	62.173028
439.000000	62.089739
438.000000	61.952287
437.000000	61.893747
436.000000	61.773503
435.000000	61.694268
434.000000	61.648174
433.000000	61.560633
432.000000	61.451232
431.000000	61.359898
430.000000	61.290153
429.000000	61.113405
428.000000	61.060165
427.000000	60.944519
426.000000	60.782972
425.000000	60.673189
424.000000	60.589155
423.000000	60.458440
422.000000	60.348579
421.000000	60.145210
420.000000	60.031720
419.000000	59.920069
418.000000	59.764612
417.000000	59.625534
416.000000	59.519888
415.000000	59.457203
414.000000	59.211354
413.000000	59.071910
412.000000	58.951563
411.000000	58.712332
410.000000	58.598592
409.000000	58.358653
408.000000	58.203821
407.000000	58.058110
406.000000	57.866074
405.000000	57.655946
404.000000	57.432351
403.000000	57.246957
402.000000	57.037399
401.000000	56.777089
400.000000	56.682545
399.000000	56.407386
398.000000	56.095782
397.000000	55.873007
396.000000	55.640699
395.000000	55.438076
394.000000	55.201300
393.000000	54.942897
392.000000	54.631659
391.000000	54.353030
390.000000	54.108721
389.000000	53.812789
388.000000	53.458658
387.000000	53.280593
386.000000	52.872525
385.000000	52.496805
384.000000	52.174076
383.000000	51.793413
382.000000	51.549322
381.000000	51.132887
380.000000	50.814343
379.000000	50.451384
378.000000	49.848387
377.000000	49.509971
376.000000	49.078315
375.000000	48.501493
374.000000	47.992882
373.000000	47.525624
372.000000	46.879692
371.000000	46.218249
370.000000	45.498220
369.000000	44.634513
368.000000	43.767310
367.000000	42.756299
366.000000	41.580568
365.000000	40.349031
364.000000	38.952163
363.000000	37.383740
362.000000	35.716953
361.000000	33.863402
360.000000	31.858582
359.000000	29.635566
358.000000	27.293902
357.000000	24.728614
356.000000	21.989952
355.000000	19.281715
354.000000	16.512112
353.000000	13.795212
352.000000	11.184413
351.000000	8.751252
350.000000	6.631990
349.000000	4.768358
348.000000	3.255497
347.000000	2.107721
346.000000	1.259873
345.000000	0.689302
344.000000	0.354656
343.000000	0.164095
342.000000	0.073129
341.000000	0.031822
340.000000	0.030303
339.000000	0.029988
338.000000	0.017326
337.000000	0.021629
336.000000	0.017317
335.000000	0.015911
334.000000	0.016403
333.000000	0.030868
332.000000	0.028508
331.000000	0.017288
330.000000	0.022000
329.000000	0.033963
328.000000	0.032194
327.000000	0.027005
326.000000	0.036110
325.000000	0.039979
