PE UV       SUBTECH     SPECTRUM    ASCII       PEDS        4.00        
   -1
J37.Sample.Raw.asc
18/05/22
16:32:29.00
18/05/22
16:32:29.00
Administrator
longitudinal
325.000000
1
Lambda 850
850L1710193
PerkinElmer UV WinLab 6.4.0.973 / 2.02.06 Lambda 800 UV/VIS, Jan 28 2016 16:58:34

0
0
2
0
0
UV/VIS
1
1
1
RBeamAtt,SBeamAtt,60mm sphere
0
0
0
0
Fix
 
0
0.16
0
0
0
 
 
 
0
 
0
319.2
0
Front
100
 
S:100 R:100
 
0
0
0
 
0
 
 
 
0
 
 
0
0
0
0
0
 
 
 
 
0
0


0
0
#HDR
-1
-1
#GR
nm
%T
1.0
0.0
900.000000
-1.000000
576
8
75.836330
0.014248
#DATA
900.000000	71.742367
899.000000	71.823305
898.000000	73.896607
897.000000	72.328483
896.000000	72.562196
895.000000	73.513097
894.000000	72.931000
893.000000	71.509611
892.000000	71.948635
891.000000	72.656731
890.000000	71.519278
889.000000	73.986745
888.000000	74.141174
887.000000	74.512272
886.000000	75.836330
885.000000	72.416421
884.000000	74.830594
883.000000	73.174158
882.000000	74.079874
881.000000	73.409439
880.000000	74.326043
879.000000	73.156455
878.000000	74.232136
877.000000	73.785453
876.000000	73.282328
875.000000	74.264957
874.000000	73.297531
873.000000	73.218385
872.000000	73.303086
871.000000	73.796510
870.000000	74.295090
869.000000	73.524914
868.000000	73.659226
867.000000	73.786354
866.000000	73.401472
865.000000	73.176087
864.000000	73.336721
863.000000	73.118265
862.000000	73.405890
861.000000	73.668594
860.000000	72.909545
859.000000	73.303475
858.000000	73.595842
857.000000	73.028301
856.000000	73.876845
855.000000	73.605188
854.000000	73.416855
853.000000	73.784439
852.000000	72.841254
851.000000	73.748895
850.000000	73.763690
849.000000	73.278173
848.000000	73.300262
847.000000	73.068461
846.000000	73.279368
845.000000	73.094912
844.000000	72.826877
843.000000	72.619513
842.000000	72.729097
841.000000	72.914278
840.000000	72.465802
839.000000	72.965152
838.000000	72.950672
837.000000	72.882096
836.000000	72.679458
835.000000	72.535543
834.000000	72.828094
833.000000	72.673126
832.000000	72.490810
831.000000	72.524879
830.000000	72.532914
829.000000	72.364529
828.000000	72.267444
827.000000	72.335469
826.000000	72.460644
825.000000	72.418653
824.000000	72.268052
823.000000	72.157950
822.000000	72.089299
821.000000	72.344678
820.000000	72.236727
819.000000	72.096919
818.000000	71.964666
817.000000	71.903915
816.000000	71.995902
815.000000	71.957663
814.000000	71.865585
813.000000	71.902899
812.000000	71.864980
811.000000	71.689494
810.000000	71.790048
809.000000	71.999094
808.000000	72.047941
807.000000	72.039729
806.000000	71.922840
805.000000	71.966551
804.000000	72.135175
803.000000	71.997433
802.000000	71.885268
801.000000	71.979629
800.000000	72.065264
799.000000	71.991917
798.000000	71.865044
797.000000	71.991428
796.000000	71.879762
795.000000	71.770685
794.000000	71.863952
793.000000	71.873071
792.000000	71.769022
791.000000	71.730685
790.000000	71.803317
789.000000	71.760366
788.000000	71.665514
787.000000	71.692064
786.000000	71.785231
785.000000	71.828745
784.000000	71.613089
783.000000	71.482073
782.000000	71.629294
781.000000	71.704769
780.000000	71.623883
779.000000	71.618181
778.000000	71.527529
777.000000	71.491071
776.000000	71.644426
775.000000	71.570920
774.000000	71.484404
773.000000	71.600513
772.000000	71.484728
771.000000	71.370573
770.000000	71.437397
769.000000	71.415954
768.000000	71.358909
767.000000	71.313171
766.000000	71.431311
765.000000	71.478723
764.000000	71.350516
763.000000	71.415278
762.000000	71.430514
761.000000	71.274065
760.000000	71.184614
759.000000	71.311990
758.000000	71.381210
757.000000	71.427549
756.000000	71.395486
755.000000	71.352248
754.000000	71.296370
753.000000	71.177665
752.000000	71.169646
751.000000	71.255656
750.000000	71.213449
749.000000	71.056047
748.000000	71.102817
747.000000	71.185328
746.000000	70.986277
745.000000	71.050467
744.000000	71.120556
743.000000	71.011548
742.000000	71.034889
741.000000	71.018204
740.000000	71.051739
739.000000	71.012555
738.000000	71.000653
737.000000	70.958301
736.000000	70.911480
735.000000	70.963307
734.000000	70.934124
733.000000	70.894535
732.000000	70.955914
731.000000	70.958227
730.000000	70.894850
729.000000	70.905162
728.000000	70.819491
727.000000	70.760708
726.000000	70.712875
725.000000	70.752076
724.000000	70.777883
723.000000	70.710832
722.000000	70.822579
721.000000	70.724154
720.000000	70.817275
719.000000	70.809640
718.000000	70.805900
717.000000	70.690430
716.000000	70.704811
715.000000	70.700856
714.000000	70.731653
713.000000	70.646303
712.000000	70.452470
711.000000	70.579882
710.000000	70.557395
709.000000	70.499596
708.000000	70.585702
707.000000	70.501497
706.000000	70.534386
705.000000	70.513579
704.000000	70.571901
703.000000	70.568117
702.000000	70.559266
701.000000	70.386052
700.000000	70.367401
699.000000	70.423474
698.000000	70.367508
697.000000	70.353425
696.000000	70.353656
695.000000	70.407888
694.000000	70.365212
693.000000	70.306954
692.000000	70.295562
691.000000	70.244817
690.000000	70.183026
689.000000	70.133444
688.000000	70.189480
687.000000	70.132952
686.000000	70.066664
685.000000	70.120123
684.000000	70.017165
683.000000	69.913494
682.000000	70.032950
681.000000	69.987861
680.000000	69.940907
679.000000	69.958609
678.000000	69.861041
677.000000	69.871707
676.000000	69.896898
675.000000	69.872354
674.000000	69.822897
673.000000	69.875379
672.000000	69.866044
671.000000	69.747869
670.000000	69.705914
669.000000	69.661321
668.000000	69.635870
667.000000	69.652332
666.000000	69.552240
665.000000	69.589946
664.000000	69.628867
663.000000	69.548270
662.000000	69.537670
661.000000	69.575768
660.000000	69.516398
659.000000	69.410026
658.000000	69.398049
657.000000	69.391233
656.000000	69.378915
655.000000	69.347557
654.000000	69.371360
653.000000	69.240985
652.000000	69.191453
651.000000	69.160556
650.000000	69.185885
649.000000	69.140222
648.000000	69.099561
647.000000	69.121086
646.000000	69.069270
645.000000	68.964961
644.000000	69.012644
643.000000	68.894650
642.000000	68.967511
641.000000	68.990541
640.000000	68.905500
639.000000	68.876656
638.000000	68.758996
637.000000	68.819238
636.000000	68.662578
635.000000	68.710752
634.000000	68.631153
633.000000	68.620939
632.000000	68.597229
631.000000	68.506516
630.000000	68.558245
629.000000	68.539517
628.000000	68.473560
627.000000	68.428419
626.000000	68.318145
625.000000	68.321326
624.000000	68.318700
623.000000	68.335314
622.000000	68.272554
621.000000	68.159773
620.000000	68.154971
619.000000	68.095775
618.000000	68.081015
617.000000	68.018653
616.000000	68.032755
615.000000	67.954404
614.000000	67.945070
613.000000	67.871618
612.000000	67.809760
611.000000	67.786624
610.000000	67.807799
609.000000	67.698698
608.000000	67.706917
607.000000	67.616313
606.000000	67.618730
605.000000	67.602593
604.000000	67.543554
603.000000	67.518806
602.000000	67.458041
601.000000	67.319007
600.000000	67.337238
599.000000	67.271532
598.000000	67.259530
597.000000	67.254201
596.000000	67.222337
595.000000	67.197581
594.000000	67.095236
593.000000	67.024082
592.000000	67.011106
591.000000	66.990255
590.000000	66.975372
589.000000	66.829163
588.000000	66.901759
587.000000	66.829418
586.000000	66.798952
585.000000	66.738989
584.000000	66.678770
583.000000	66.633456
582.000000	66.618712
581.000000	66.530779
580.000000	66.502732
579.000000	66.507357
578.000000	66.406750
577.000000	66.332357
576.000000	66.288428
575.000000	66.276487
574.000000	66.284553
573.000000	66.201793
572.000000	66.161682
571.000000	66.143572
570.000000	66.099133
569.000000	66.018481
568.000000	65.947886
567.000000	65.949524
566.000000	65.945291
565.000000	65.897034
564.000000	65.833723
563.000000	65.798638
562.000000	65.754581
561.000000	65.730807
560.000000	65.666477
559.000000	65.629532
558.000000	65.566513
557.000000	65.499786
556.000000	65.468670
555.000000	65.419042
554.000000	65.420720
553.000000	65.356366
552.000000	65.295424
551.000000	65.304683
550.000000	65.231150
549.000000	65.179628
548.000000	65.118746
547.000000	65.074198
546.000000	65.059570
545.000000	65.024196
544.000000	64.953272
543.000000	64.934047
542.000000	64.904737
541.000000	64.853785
540.000000	64.800254
539.000000	64.788830
538.000000	64.743686
537.000000	64.693859
536.000000	64.658568
535.000000	64.613847
534.000000	64.590194
533.000000	64.579090
532.000000	64.522736
531.000000	64.461332
530.000000	64.395685
529.000000	64.357321
528.000000	64.340663
527.000000	64.307303
526.000000	64.277157
525.000000	64.223049
524.000000	64.199266
523.000000	64.137645
522.000000	64.074123
521.000000	64.062153
520.000000	64.017044
519.000000	63.965384
518.000000	63.937329
517.000000	63.880162
516.000000	63.829045
515.000000	63.809822
514.000000	63.779548
513.000000	63.736799
512.000000	63.693997
511.000000	63.636571
510.000000	63.604148
509.000000	63.572984
508.000000	63.520288
507.000000	63.507526
506.000000	63.472461
505.000000	63.400532
504.000000	63.342708
503.000000	63.292307
502.000000	63.238535
501.000000	63.200189
500.000000	63.147657
499.000000	63.115842
498.000000	63.087001
497.000000	63.070825
496.000000	62.991868
495.000000	62.906923
494.000000	62.855285
493.000000	62.832183
492.000000	62.788839
491.000000	62.723646
490.000000	62.711075
489.000000	62.659707
488.000000	62.608796
487.000000	62.532416
486.000000	62.485772
485.000000	62.421695
484.000000	62.347177
483.000000	62.317993
482.000000	62.302903
481.000000	62.245167
480.000000	62.204513
479.000000	62.134143
478.000000	62.051283
477.000000	62.011797
476.000000	61.950898
475.000000	61.921643
474.000000	61.844702
473.000000	61.809672
472.000000	61.765977
471.000000	61.701033
470.000000	61.642384
469.000000	61.577573
468.000000	61.498303
467.000000	61.458036
466.000000	61.368137
465.000000	61.287130
464.000000	61.252474
463.000000	61.193174
462.000000	61.108539
461.000000	61.048424
460.000000	60.966526
459.000000	60.896115
458.000000	60.779515
457.000000	60.728983
456.000000	60.685757
455.000000	60.588050
454.000000	60.514807
453.000000	60.393053
452.000000	60.261591
451.000000	60.172775
450.000000	60.090247
449.000000	60.006981
448.000000	59.952157
447.000000	59.843251
446.000000	59.734206
445.000000	59.679213
444.000000	59.488761
443.000000	59.389489
442.000000	59.281318
441.000000	59.183195
440.000000	59.135629
439.000000	59.015771
438.000000	58.883012
437.000000	58.754229
436.000000	58.622057
435.000000	58.526540
434.000000	58.371985
433.000000	58.234455
432.000000	58.131600
431.000000	58.019299
430.000000	57.866241
429.000000	57.783781
428.000000	57.623934
427.000000	57.525040
426.000000	57.285652
425.000000	57.150631
424.000000	57.046618
423.000000	56.904931
422.000000	56.727686
421.000000	56.536524
420.000000	56.389727
419.000000	56.275147
418.000000	56.090382
417.000000	56.009786
416.000000	55.817104
415.000000	55.646682
414.000000	55.443298
413.000000	55.287824
412.000000	55.082090
411.000000	54.825937
410.000000	54.724104
409.000000	54.461207
408.000000	54.241121
407.000000	54.091503
406.000000	53.902949
405.000000	53.733047
404.000000	53.487325
403.000000	53.261812
402.000000	53.102610
401.000000	52.903292
400.000000	52.694866
399.000000	52.443633
398.000000	52.284454
397.000000	52.028297
396.000000	51.789719
395.000000	51.568601
394.000000	51.291086
393.000000	51.094070
392.000000	50.845654
391.000000	50.685970
390.000000	50.373538
389.000000	50.125756
388.000000	49.846802
387.000000	49.561017
386.000000	49.258081
385.000000	48.971481
384.000000	48.637935
383.000000	48.368195
382.000000	47.945961
381.000000	47.649577
380.000000	47.242991
379.000000	46.941616
378.000000	46.259873
377.000000	45.891878
376.000000	45.290874
375.000000	44.607127
374.000000	44.036727
373.000000	43.391180
372.000000	42.496729
371.000000	41.669625
370.000000	40.708951
369.000000	39.677448
368.000000	38.436208
367.000000	36.998020
366.000000	35.523592
365.000000	33.727450
364.000000	31.663425
363.000000	29.586563
362.000000	27.430524
361.000000	24.970953
360.000000	22.406843
359.000000	19.748422
358.000000	17.089499
357.000000	14.360954
356.000000	11.721442
355.000000	9.315007
354.000000	7.070383
353.000000	5.139272
352.000000	3.540404
351.000000	2.319645
350.000000	1.424503
349.000000	0.812502
348.000000	0.432170
347.000000	0.212788
346.000000	0.100247
345.000000	0.049580
344.000000	0.028095
343.000000	0.021823
342.000000	0.014313
341.000000	0.016256
340.000000	0.018574
339.000000	0.014248
338.000000	0.017454
337.000000	0.019882
336.000000	0.021247
335.000000	0.020110
334.000000	0.024196
333.000000	0.023725
332.000000	0.024415
331.000000	0.024531
330.000000	0.026473
329.000000	0.023013
328.000000	0.022943
327.000000	0.027083
326.000000	0.030908
325.000000	0.030253
