PE UV       SUBTECH     SPECTRUM    ASCII       PEDS        4.00        
   -1
J34.Sample.Cycle1.Raw.asc
18/05/22
18:30:24.00
18/05/22
18:30:24.00
Administrator

325.000000
1
Lambda 850
850L1710193
PerkinElmer UV WinLab 6.4.0.973 / 2.02.06 Lambda 800 UV/VIS, Jan 28 2016 16:58:34

0
0
2
0
0
UV/VIS
1
1
1
RBeamAtt,SBeamAtt,60mm sphere
0
0
0
0
Fix
 
0
0.16
0
0
0
 
 
 
0
 
0
319.2
0
Front
100
 
S:100 R:100
 
0
0
0
 
0
 
 
 
0
 
 
0
0
0
0
0
 
 
 
 
0
0


0
0
#HDR
-1
-1
#GR
nm
%T
1.0
0.0
900.000000
-1.000000
576
8
77.069733
0.012457
#DATA
900.000000	73.938936
899.000000	74.151901
898.000000	75.684675
897.000000	74.804481
896.000000	72.846464
895.000000	73.841085
894.000000	74.216196
893.000000	71.458918
892.000000	73.665317
891.000000	75.227613
890.000000	76.205404
889.000000	74.561702
888.000000	74.776767
887.000000	74.030780
886.000000	73.694912
885.000000	74.888834
884.000000	75.817725
883.000000	74.489663
882.000000	77.069733
881.000000	74.733403
880.000000	74.861301
879.000000	74.151620
878.000000	75.268074
877.000000	74.830544
876.000000	74.331386
875.000000	75.404770
874.000000	75.212814
873.000000	75.274905
872.000000	73.955440
871.000000	75.811990
870.000000	76.474230
869.000000	75.655866
868.000000	75.102401
867.000000	74.975730
866.000000	74.527056
865.000000	74.812317
864.000000	74.839582
863.000000	75.078424
862.000000	74.885409
861.000000	74.836565
860.000000	73.967899
859.000000	74.758578
858.000000	74.556610
857.000000	74.484678
856.000000	74.978945
855.000000	74.609182
854.000000	74.557433
853.000000	75.283285
852.000000	74.657577
851.000000	75.145082
850.000000	74.816681
849.000000	74.168540
848.000000	74.504117
847.000000	74.382040
846.000000	74.244387
845.000000	74.374694
844.000000	74.145253
843.000000	73.865911
842.000000	74.040503
841.000000	74.227421
840.000000	73.966581
839.000000	74.294950
838.000000	74.166589
837.000000	74.317432
836.000000	74.028231
835.000000	73.929033
834.000000	74.146282
833.000000	73.940681
832.000000	73.836720
831.000000	73.791150
830.000000	74.001403
829.000000	73.791267
828.000000	73.675008
827.000000	73.668343
826.000000	73.360165
825.000000	73.234891
824.000000	73.364837
823.000000	73.375080
822.000000	73.462550
821.000000	73.603953
820.000000	73.335199
819.000000	73.317125
818.000000	73.376348
817.000000	73.183552
816.000000	73.325732
815.000000	73.515836
814.000000	73.281782
813.000000	73.234163
812.000000	73.151370
811.000000	73.077422
810.000000	73.092013
809.000000	73.211360
808.000000	73.120341
807.000000	73.046224
806.000000	73.039688
805.000000	73.187748
804.000000	73.260741
803.000000	73.139836
802.000000	73.142657
801.000000	73.177049
800.000000	73.201266
799.000000	73.290884
798.000000	73.242911
797.000000	73.251311
796.000000	73.077895
795.000000	72.936156
794.000000	72.901637
793.000000	72.882140
792.000000	72.898140
791.000000	73.049844
790.000000	72.959933
789.000000	72.831121
788.000000	72.761544
787.000000	72.733050
786.000000	72.887611
785.000000	72.896956
784.000000	72.622185
783.000000	72.527481
782.000000	72.702866
781.000000	72.767156
780.000000	72.493009
779.000000	72.370259
778.000000	72.539705
777.000000	72.699582
776.000000	72.720364
775.000000	72.585037
774.000000	72.511634
773.000000	72.527885
772.000000	72.486166
771.000000	72.498582
770.000000	72.456434
769.000000	72.376667
768.000000	72.435620
767.000000	72.330581
766.000000	72.339104
765.000000	72.446931
764.000000	72.407570
763.000000	72.468681
762.000000	72.448273
761.000000	72.300070
760.000000	72.270116
759.000000	72.385512
758.000000	72.355696
757.000000	72.273442
756.000000	72.248434
755.000000	72.266971
754.000000	72.227315
753.000000	72.150933
752.000000	72.193979
751.000000	72.227912
750.000000	72.126809
749.000000	72.014361
748.000000	72.054897
747.000000	72.134285
746.000000	72.000783
745.000000	71.951448
744.000000	72.028701
743.000000	71.934564
742.000000	71.924544
741.000000	71.779843
740.000000	71.960593
739.000000	71.942066
738.000000	71.887682
737.000000	71.733695
736.000000	71.669619
735.000000	71.771177
734.000000	71.791948
733.000000	71.791078
732.000000	71.734101
731.000000	71.747839
730.000000	71.787475
729.000000	71.750425
728.000000	71.595716
727.000000	71.588051
726.000000	71.570687
725.000000	71.644018
724.000000	71.611302
723.000000	71.535930
722.000000	71.654077
721.000000	71.565303
720.000000	71.575160
719.000000	71.467501
718.000000	71.508797
717.000000	71.527309
716.000000	71.531996
715.000000	71.440544
714.000000	71.451044
713.000000	71.399773
712.000000	71.237980
711.000000	71.320608
710.000000	71.359499
709.000000	71.261627
708.000000	71.397381
707.000000	71.236523
706.000000	71.274287
705.000000	71.220511
704.000000	71.288486
703.000000	71.283910
702.000000	71.233681
701.000000	71.190016
700.000000	71.210935
699.000000	71.132455
698.000000	71.102021
697.000000	71.097140
696.000000	71.098523
695.000000	71.046343
694.000000	71.091907
693.000000	71.036699
692.000000	71.040275
691.000000	70.954453
690.000000	70.863044
689.000000	70.825875
688.000000	70.801783
687.000000	70.793509
686.000000	70.770234
685.000000	70.801300
684.000000	70.697609
683.000000	70.662855
682.000000	70.625652
681.000000	70.665553
680.000000	70.637866
679.000000	70.531356
678.000000	70.559439
677.000000	70.586104
676.000000	70.535899
675.000000	70.503112
674.000000	70.549740
673.000000	70.500788
672.000000	70.513452
671.000000	70.403345
670.000000	70.398561
669.000000	70.322175
668.000000	70.313214
667.000000	70.241144
666.000000	70.162237
665.000000	70.254452
664.000000	70.221475
663.000000	70.121822
662.000000	70.143647
661.000000	70.103520
660.000000	70.063663
659.000000	70.031469
658.000000	70.092718
657.000000	69.961190
656.000000	69.961899
655.000000	69.868929
654.000000	69.962914
653.000000	69.793833
652.000000	69.694115
651.000000	69.645479
650.000000	69.628524
649.000000	69.704098
648.000000	69.585860
647.000000	69.540530
646.000000	69.523542
645.000000	69.456014
644.000000	69.471806
643.000000	69.388581
642.000000	69.378624
641.000000	69.350893
640.000000	69.304801
639.000000	69.273463
638.000000	69.237548
637.000000	69.169796
636.000000	69.079267
635.000000	69.001799
634.000000	69.061597
633.000000	69.047573
632.000000	69.004050
631.000000	68.841955
630.000000	68.989858
629.000000	68.856574
628.000000	68.764959
627.000000	68.775314
626.000000	68.600501
625.000000	68.607127
624.000000	68.519146
623.000000	68.478404
622.000000	68.462456
621.000000	68.397414
620.000000	68.427309
619.000000	68.296144
618.000000	68.253086
617.000000	68.218160
616.000000	68.191448
615.000000	68.155758
614.000000	68.113091
613.000000	67.987020
612.000000	67.953788
611.000000	67.895123
610.000000	67.875803
609.000000	67.765532
608.000000	67.772212
607.000000	67.656610
606.000000	67.623463
605.000000	67.617583
604.000000	67.539698
603.000000	67.499091
602.000000	67.385574
601.000000	67.291758
600.000000	67.318917
599.000000	67.266888
598.000000	67.229547
597.000000	67.132597
596.000000	67.157249
595.000000	67.119322
594.000000	67.015608
593.000000	66.968423
592.000000	66.899098
591.000000	66.788878
590.000000	66.796500
589.000000	66.709613
588.000000	66.734542
587.000000	66.642728
586.000000	66.568731
585.000000	66.507808
584.000000	66.443464
583.000000	66.435855
582.000000	66.366161
581.000000	66.252226
580.000000	66.224595
579.000000	66.205877
578.000000	66.138621
577.000000	66.088090
576.000000	65.979519
575.000000	65.960262
574.000000	65.915713
573.000000	65.804707
572.000000	65.804082
571.000000	65.794861
570.000000	65.724930
569.000000	65.650302
568.000000	65.584067
567.000000	65.558363
566.000000	65.489380
565.000000	65.451583
564.000000	65.389215
563.000000	65.365165
562.000000	65.308224
561.000000	65.229094
560.000000	65.145914
559.000000	65.126376
558.000000	65.115908
557.000000	65.011710
556.000000	64.954056
555.000000	64.919420
554.000000	64.933233
553.000000	64.848472
552.000000	64.775400
551.000000	64.756698
550.000000	64.634820
549.000000	64.603509
548.000000	64.577165
547.000000	64.530100
546.000000	64.455739
545.000000	64.383752
544.000000	64.333289
543.000000	64.283430
542.000000	64.258117
541.000000	64.201477
540.000000	64.157249
539.000000	64.149653
538.000000	64.079531
537.000000	64.010507
536.000000	63.974386
535.000000	63.944910
534.000000	63.855781
533.000000	63.835221
532.000000	63.783193
531.000000	63.727044
530.000000	63.666596
529.000000	63.599567
528.000000	63.578356
527.000000	63.541678
526.000000	63.493965
525.000000	63.437545
524.000000	63.410273
523.000000	63.358526
522.000000	63.285320
521.000000	63.241448
520.000000	63.209689
519.000000	63.151525
518.000000	63.105688
517.000000	63.067775
516.000000	63.015685
515.000000	62.978538
514.000000	62.937354
513.000000	62.886350
512.000000	62.845730
511.000000	62.792449
510.000000	62.735247
509.000000	62.699802
508.000000	62.656641
507.000000	62.634326
506.000000	62.580020
505.000000	62.510872
504.000000	62.488060
503.000000	62.445646
502.000000	62.377407
501.000000	62.341894
500.000000	62.292612
499.000000	62.224383
498.000000	62.157283
497.000000	62.124655
496.000000	62.094470
495.000000	62.031243
494.000000	61.942852
493.000000	61.900185
492.000000	61.867942
491.000000	61.770482
490.000000	61.704824
489.000000	61.666192
488.000000	61.632642
487.000000	61.582939
486.000000	61.563906
485.000000	61.488687
484.000000	61.388934
483.000000	61.349782
482.000000	61.328295
481.000000	61.214067
480.000000	61.186607
479.000000	61.194272
478.000000	61.113706
477.000000	61.039154
476.000000	60.959980
475.000000	60.951492
474.000000	60.864618
473.000000	60.819466
472.000000	60.814210
471.000000	60.735284
470.000000	60.653129
469.000000	60.580509
468.000000	60.517864
467.000000	60.484552
466.000000	60.394154
465.000000	60.299728
464.000000	60.266267
463.000000	60.205065
462.000000	60.162553
461.000000	60.092000
460.000000	60.019301
459.000000	59.916652
458.000000	59.821431
457.000000	59.782165
456.000000	59.724598
455.000000	59.657038
454.000000	59.574793
453.000000	59.477576
452.000000	59.372477
451.000000	59.269553
450.000000	59.176858
449.000000	59.118778
448.000000	59.076460
447.000000	58.912374
446.000000	58.814558
445.000000	58.772458
444.000000	58.644969
443.000000	58.608227
442.000000	58.498369
441.000000	58.307711
440.000000	58.307861
439.000000	58.213371
438.000000	58.094594
437.000000	57.985284
436.000000	57.850117
435.000000	57.679853
434.000000	57.635018
433.000000	57.478257
432.000000	57.375428
431.000000	57.305693
430.000000	57.168610
429.000000	57.025776
428.000000	56.913520
427.000000	56.854085
426.000000	56.663148
425.000000	56.507872
424.000000	56.420448
423.000000	56.258905
422.000000	56.106367
421.000000	55.936997
420.000000	55.822640
419.000000	55.660640
418.000000	55.512509
417.000000	55.375384
416.000000	55.247768
415.000000	55.009964
414.000000	54.860632
413.000000	54.728975
412.000000	54.518367
411.000000	54.343663
410.000000	54.187827
409.000000	53.977737
408.000000	53.740258
407.000000	53.600895
406.000000	53.388683
405.000000	53.225538
404.000000	53.021213
403.000000	52.835893
402.000000	52.625540
401.000000	52.429343
400.000000	52.221593
399.000000	51.935584
398.000000	51.753449
397.000000	51.623381
396.000000	51.337679
395.000000	51.205603
394.000000	50.896015
393.000000	50.715800
392.000000	50.443543
391.000000	50.174912
390.000000	49.995154
389.000000	49.698467
388.000000	49.494061
387.000000	49.146801
386.000000	48.893240
385.000000	48.611478
384.000000	48.266906
383.000000	47.990342
382.000000	47.606937
381.000000	47.276531
380.000000	46.934432
379.000000	46.449046
378.000000	45.937649
377.000000	45.567153
376.000000	44.968603
375.000000	44.470283
374.000000	43.814875
373.000000	43.063980
372.000000	42.293712
371.000000	41.409521
370.000000	40.433551
369.000000	39.392826
368.000000	38.132854
367.000000	36.705716
366.000000	35.172978
365.000000	33.367952
364.000000	31.478836
363.000000	29.342748
362.000000	27.067457
361.000000	24.660348
360.000000	22.087469
359.000000	19.470157
358.000000	16.728617
357.000000	14.015774
356.000000	11.395417
355.000000	8.998550
354.000000	6.791143
353.000000	4.917278
352.000000	3.383471
351.000000	2.173761
350.000000	1.320628
349.000000	0.753387
348.000000	0.392829
347.000000	0.194469
346.000000	0.089248
345.000000	0.042056
344.000000	0.021530
343.000000	0.012457
342.000000	0.013829
341.000000	0.017127
340.000000	0.016446
339.000000	0.024425
338.000000	0.023563
337.000000	0.017457
336.000000	0.019889
335.000000	0.023899
334.000000	0.025362
333.000000	0.027712
332.000000	0.025582
331.000000	0.026088
330.000000	0.025792
329.000000	0.029643
328.000000	0.030265
327.000000	0.031679
326.000000	0.029147
325.000000	0.035051
