PE UV       SUBTECH     SPECTRUM    ASCII       PEDS        4.00        
   -1
J44.Sample.Cycle1.Raw.asc
18/05/22
18:48:28.00
18/05/22
18:48:28.00
Administrator

325.000000
1
Lambda 850
850L1710193
PerkinElmer UV WinLab 6.4.0.973 / 2.02.06 Lambda 800 UV/VIS, Jan 28 2016 16:58:34

0
0
2
0
0
UV/VIS
1
1
1
RBeamAtt,SBeamAtt,60mm sphere
0
0
0
0
Fix
 
0
0.16
0
0
0
 
 
 
0
 
0
319.2
0
Front
100
 
S:100 R:100
 
0
0
0
 
0
 
 
 
0
 
 
0
0
0
0
0
 
 
 
 
0
0


0
0
#HDR
-1
-1
#GR
nm
%T
1.0
0.0
900.000000
-1.000000
576
8
76.554742
0.013478
#DATA
900.000000	71.170980
899.000000	74.540204
898.000000	73.007703
897.000000	73.078727
896.000000	72.843733
895.000000	74.582791
894.000000	75.090458
893.000000	75.056736
892.000000	73.894752
891.000000	75.661217
890.000000	75.476603
889.000000	74.547015
888.000000	75.654443
887.000000	74.115595
886.000000	75.746046
885.000000	75.409787
884.000000	74.680285
883.000000	73.117758
882.000000	75.767668
881.000000	74.693059
880.000000	76.554742
879.000000	74.460035
878.000000	73.728440
877.000000	73.967788
876.000000	74.538971
875.000000	75.344547
874.000000	74.946894
873.000000	74.684916
872.000000	74.006896
871.000000	74.725526
870.000000	75.336770
869.000000	74.981739
868.000000	74.518491
867.000000	74.841372
866.000000	74.680036
865.000000	74.123003
864.000000	74.164837
863.000000	74.363082
862.000000	74.533183
861.000000	74.386655
860.000000	73.434519
859.000000	74.225743
858.000000	73.973913
857.000000	74.036849
856.000000	74.484198
855.000000	74.210548
854.000000	74.331224
853.000000	74.628703
852.000000	73.968867
851.000000	74.652576
850.000000	74.212622
849.000000	73.585132
848.000000	74.089678
847.000000	73.917617
846.000000	73.974504
845.000000	73.807174
844.000000	73.530737
843.000000	73.168806
842.000000	73.438437
841.000000	73.489417
840.000000	73.249511
839.000000	73.590427
838.000000	73.627053
837.000000	73.590350
836.000000	73.149109
835.000000	73.233423
834.000000	73.253395
833.000000	73.133994
832.000000	73.083138
831.000000	73.055481
830.000000	73.293913
829.000000	73.078527
828.000000	72.918383
827.000000	73.022668
826.000000	72.949729
825.000000	72.927901
824.000000	72.870915
823.000000	72.693433
822.000000	72.678815
821.000000	72.719132
820.000000	72.612855
819.000000	72.797113
818.000000	72.632058
817.000000	72.392013
816.000000	72.607620
815.000000	72.894412
814.000000	72.780081
813.000000	72.651192
812.000000	72.560344
811.000000	72.360875
810.000000	72.402013
809.000000	72.497892
808.000000	72.520955
807.000000	72.516203
806.000000	72.417708
805.000000	72.529961
804.000000	72.689000
803.000000	72.558048
802.000000	72.380924
801.000000	72.513524
800.000000	72.462423
799.000000	72.489177
798.000000	72.320633
797.000000	72.377524
796.000000	72.550144
795.000000	72.392623
794.000000	72.218655
793.000000	72.174799
792.000000	72.219558
791.000000	72.315621
790.000000	72.296482
789.000000	72.254859
788.000000	72.262744
787.000000	72.145139
786.000000	72.162985
785.000000	72.265353
784.000000	72.017469
783.000000	71.791743
782.000000	71.972334
781.000000	72.084078
780.000000	71.908498
779.000000	71.986660
778.000000	72.127413
777.000000	72.012012
776.000000	71.822974
775.000000	71.702410
774.000000	71.784714
773.000000	71.855826
772.000000	71.802437
771.000000	71.772248
770.000000	71.851791
769.000000	71.781355
768.000000	71.634507
767.000000	71.646146
766.000000	71.639314
765.000000	71.645299
764.000000	71.618534
763.000000	71.684662
762.000000	71.706099
761.000000	71.471674
760.000000	71.403021
759.000000	71.611287
758.000000	71.573076
757.000000	71.556835
756.000000	71.541620
755.000000	71.419904
754.000000	71.379770
753.000000	71.250913
752.000000	71.286247
751.000000	71.366959
750.000000	71.264381
749.000000	71.240683
748.000000	71.324426
747.000000	71.362761
746.000000	71.342388
745.000000	71.304778
744.000000	71.286187
743.000000	71.182011
742.000000	71.238273
741.000000	71.164048
740.000000	71.234521
739.000000	71.197326
738.000000	71.152735
737.000000	71.051146
736.000000	70.996536
735.000000	71.097695
734.000000	70.994650
733.000000	70.941370
732.000000	70.873901
731.000000	70.946642
730.000000	71.074148
729.000000	71.009638
728.000000	70.940206
727.000000	70.858391
726.000000	70.876857
725.000000	70.851563
724.000000	70.823898
723.000000	70.785880
722.000000	70.857963
721.000000	70.815243
720.000000	70.788735
719.000000	70.759380
718.000000	70.764426
717.000000	70.739491
716.000000	70.755987
715.000000	70.671338
714.000000	70.691787
713.000000	70.693573
712.000000	70.489867
711.000000	70.519371
710.000000	70.608536
709.000000	70.512121
708.000000	70.579217
707.000000	70.584789
706.000000	70.568093
705.000000	70.571099
704.000000	70.532355
703.000000	70.541808
702.000000	70.500843
701.000000	70.356285
700.000000	70.374500
699.000000	70.417066
698.000000	70.331587
697.000000	70.377678
696.000000	70.407381
695.000000	70.317312
694.000000	70.328807
693.000000	70.237351
692.000000	70.239730
691.000000	70.226088
690.000000	70.091617
689.000000	70.042818
688.000000	70.084873
687.000000	69.947206
686.000000	70.009528
685.000000	70.089496
684.000000	69.983078
683.000000	69.925897
682.000000	69.932894
681.000000	69.939151
680.000000	69.856675
679.000000	69.908673
678.000000	69.830917
677.000000	69.733919
676.000000	69.758374
675.000000	69.745768
674.000000	69.680137
673.000000	69.729033
672.000000	69.659120
671.000000	69.595455
670.000000	69.496791
669.000000	69.475325
668.000000	69.478041
667.000000	69.440433
666.000000	69.374614
665.000000	69.342998
664.000000	69.406486
663.000000	69.276683
662.000000	69.239123
661.000000	69.262009
660.000000	69.174086
659.000000	69.141690
658.000000	69.139390
657.000000	69.086519
656.000000	69.129675
655.000000	68.859584
654.000000	68.869533
653.000000	68.823997
652.000000	68.757450
651.000000	68.744298
650.000000	68.683239
649.000000	68.694354
648.000000	68.580818
647.000000	68.579184
646.000000	68.501669
645.000000	68.429695
644.000000	68.366674
643.000000	68.288320
642.000000	68.394906
641.000000	68.248345
640.000000	68.223992
639.000000	68.189887
638.000000	68.083311
637.000000	68.078518
636.000000	67.977532
635.000000	67.918433
634.000000	67.872610
633.000000	67.804475
632.000000	67.774143
631.000000	67.673423
630.000000	67.683998
629.000000	67.590446
628.000000	67.495346
627.000000	67.443758
626.000000	67.324478
625.000000	67.309296
624.000000	67.211483
623.000000	67.190774
622.000000	67.139538
621.000000	67.007516
620.000000	67.025262
619.000000	66.905114
618.000000	66.833019
617.000000	66.786773
616.000000	66.719418
615.000000	66.663426
614.000000	66.610806
613.000000	66.533724
612.000000	66.478306
611.000000	66.386035
610.000000	66.367107
609.000000	66.253749
608.000000	66.233704
607.000000	66.141778
606.000000	66.037002
605.000000	66.031222
604.000000	65.940810
603.000000	65.801559
602.000000	65.744965
601.000000	65.622473
600.000000	65.607340
599.000000	65.571126
598.000000	65.473838
597.000000	65.422073
596.000000	65.388310
595.000000	65.348826
594.000000	65.255554
593.000000	65.108272
592.000000	65.081281
591.000000	65.026196
590.000000	64.935232
589.000000	64.863171
588.000000	64.832423
587.000000	64.739086
586.000000	64.667061
585.000000	64.642393
584.000000	64.516817
583.000000	64.489322
582.000000	64.401632
581.000000	64.250817
580.000000	64.253079
579.000000	64.188434
578.000000	64.111429
577.000000	64.039181
576.000000	63.938330
575.000000	63.852625
574.000000	63.830476
573.000000	63.760525
572.000000	63.671727
571.000000	63.655038
570.000000	63.533128
569.000000	63.426235
568.000000	63.432112
567.000000	63.389382
566.000000	63.330782
565.000000	63.237761
564.000000	63.174927
563.000000	63.138019
562.000000	63.044446
561.000000	62.963329
560.000000	62.887369
559.000000	62.890633
558.000000	62.824622
557.000000	62.722291
556.000000	62.638334
555.000000	62.608625
554.000000	62.598758
553.000000	62.522646
552.000000	62.417661
551.000000	62.348573
550.000000	62.276530
549.000000	62.255209
548.000000	62.162703
547.000000	62.104445
546.000000	62.061403
545.000000	61.988734
544.000000	61.897761
543.000000	61.858013
542.000000	61.797568
541.000000	61.749246
540.000000	61.683763
539.000000	61.619155
538.000000	61.584624
537.000000	61.543521
536.000000	61.485570
535.000000	61.444561
534.000000	61.386412
533.000000	61.363166
532.000000	61.288383
531.000000	61.186076
530.000000	61.149388
529.000000	61.121047
528.000000	61.088762
527.000000	61.032065
526.000000	60.970656
525.000000	60.907084
524.000000	60.859436
523.000000	60.809649
522.000000	60.743564
521.000000	60.691492
520.000000	60.653197
519.000000	60.605200
518.000000	60.568865
517.000000	60.528653
516.000000	60.476647
515.000000	60.435032
514.000000	60.381337
513.000000	60.331331
512.000000	60.296815
511.000000	60.255262
510.000000	60.217401
509.000000	60.176132
508.000000	60.137429
507.000000	60.125722
506.000000	60.085449
505.000000	60.004411
504.000000	59.969170
503.000000	59.920848
502.000000	59.869116
501.000000	59.828750
500.000000	59.764051
499.000000	59.728051
498.000000	59.661458
497.000000	59.646944
496.000000	59.605056
495.000000	59.532894
494.000000	59.472009
493.000000	59.361730
492.000000	59.335318
491.000000	59.301208
490.000000	59.259922
489.000000	59.251270
488.000000	59.149537
487.000000	59.093146
486.000000	59.085639
485.000000	58.988380
484.000000	58.901251
483.000000	58.859067
482.000000	58.883573
481.000000	58.815573
480.000000	58.738566
479.000000	58.735646
478.000000	58.673643
477.000000	58.586456
476.000000	58.550751
475.000000	58.527385
474.000000	58.463067
473.000000	58.433840
472.000000	58.398145
471.000000	58.345944
470.000000	58.278760
469.000000	58.228105
468.000000	58.181361
467.000000	58.132690
466.000000	58.080527
465.000000	58.005631
464.000000	57.980686
463.000000	57.930594
462.000000	57.857382
461.000000	57.814343
460.000000	57.738476
459.000000	57.658483
458.000000	57.554124
457.000000	57.528553
456.000000	57.468676
455.000000	57.412493
454.000000	57.332204
453.000000	57.220217
452.000000	57.095903
451.000000	57.058883
450.000000	56.964020
449.000000	56.919055
448.000000	56.889928
447.000000	56.732359
446.000000	56.644374
445.000000	56.624610
444.000000	56.491349
443.000000	56.367386
442.000000	56.287313
441.000000	56.197573
440.000000	56.149814
439.000000	56.085515
438.000000	55.951768
437.000000	55.887460
436.000000	55.775493
435.000000	55.607603
434.000000	55.550136
433.000000	55.480797
432.000000	55.302651
431.000000	55.269597
430.000000	55.131752
429.000000	55.055125
428.000000	54.923188
427.000000	54.857857
426.000000	54.696569
425.000000	54.581198
424.000000	54.482513
423.000000	54.356871
422.000000	54.142117
421.000000	54.067803
420.000000	53.977671
419.000000	53.818278
418.000000	53.633952
417.000000	53.568657
416.000000	53.431673
415.000000	53.258139
414.000000	53.078385
413.000000	52.963761
412.000000	52.784211
411.000000	52.635250
410.000000	52.427643
409.000000	52.293274
408.000000	52.093243
407.000000	51.988820
406.000000	51.800159
405.000000	51.648420
404.000000	51.456129
403.000000	51.264408
402.000000	51.115110
401.000000	50.906550
400.000000	50.691426
399.000000	50.502312
398.000000	50.327968
397.000000	50.077672
396.000000	49.899702
395.000000	49.709639
394.000000	49.535983
393.000000	49.289070
392.000000	49.140364
391.000000	48.925191
390.000000	48.674244
389.000000	48.366956
388.000000	48.149735
387.000000	47.936896
386.000000	47.641762
385.000000	47.349150
384.000000	47.116527
383.000000	46.795118
382.000000	46.422345
381.000000	46.239123
380.000000	45.813297
379.000000	45.394444
378.000000	44.975084
377.000000	44.666139
376.000000	44.101743
375.000000	43.723232
374.000000	43.000414
373.000000	42.542403
372.000000	41.843717
371.000000	41.128309
370.000000	40.315658
369.000000	39.464147
368.000000	38.350961
367.000000	37.167263
366.000000	35.927560
365.000000	34.426533
364.000000	32.734746
363.000000	30.978772
362.000000	28.983852
361.000000	26.853896
360.000000	24.545721
359.000000	22.119182
358.000000	19.590100
357.000000	16.980064
356.000000	14.354352
355.000000	11.837533
354.000000	9.438793
353.000000	7.258821
352.000000	5.344652
351.000000	3.752257
350.000000	2.503495
349.000000	1.571570
348.000000	0.908308
347.000000	0.483039
346.000000	0.237352
345.000000	0.110445
344.000000	0.054066
343.000000	0.029355
342.000000	0.019148
341.000000	0.016063
340.000000	0.020896
339.000000	0.015023
338.000000	0.013478
337.000000	0.023664
336.000000	0.024546
335.000000	0.017876
334.000000	0.017005
333.000000	0.017697
332.000000	0.018287
331.000000	0.015088
330.000000	0.033092
329.000000	0.035202
328.000000	0.040224
327.000000	0.027866
326.000000	0.028560
325.000000	0.038477
