PE UV       SUBTECH     SPECTRUM    ASCII       PEDS        4.00        
   -1
J31_before.Sample.Raw.asc
17/12/19
14:03:15.00
17/12/19
14:03:15.00
Administrator
longitudinal
325.000000
1
Lambda 850
850L1710193
PerkinElmer UV WinLab 6.4.0.973 / 2.02.06 Lambda 800 UV/VIS, Jan 28 2016 16:58:34

0
0
2
0
0
UV/VIS
1
1
1
RBeamAtt,SBeamAtt,60mm sphere
0
0
0
0
Fix
 
0
0.16
0
0
0
 
 
 
0
 
0
319.2
0
Front
100
 
S:100 R:100
 
0
0
0
 
0
 
 
 
0
 
 
0
0
0
0
0
 
 
 
 
0
0


0
0
#HDR
-1
-1
#GR
nm
%T
1.0
0.0
900.000000
-1.000000
576
8
78.362471
0.014087
#DATA
900.000000	74.574386
899.000000	78.362471
898.000000	73.020557
897.000000	75.252838
896.000000	70.840269
895.000000	71.198981
894.000000	78.119101
893.000000	74.079849
892.000000	73.746038
891.000000	73.858879
890.000000	75.656790
889.000000	73.717548
888.000000	69.409808
887.000000	72.655902
886.000000	74.692519
885.000000	73.456754
884.000000	70.649459
883.000000	73.949515
882.000000	74.989838
881.000000	73.303555
880.000000	74.425637
879.000000	73.277434
878.000000	73.212286
877.000000	73.433471
876.000000	73.395395
875.000000	74.637773
874.000000	74.115460
873.000000	72.781881
872.000000	72.090901
871.000000	72.003009
870.000000	73.329243
869.000000	72.697421
868.000000	72.812479
867.000000	72.459904
866.000000	72.982907
865.000000	73.816643
864.000000	73.996538
863.000000	74.038288
862.000000	74.122395
861.000000	73.236046
860.000000	72.478483
859.000000	73.240754
858.000000	73.236378
857.000000	73.570146
856.000000	73.340536
855.000000	73.743864
854.000000	74.003726
853.000000	73.449599
852.000000	73.199856
851.000000	73.306694
850.000000	73.100068
849.000000	73.170068
848.000000	72.974087
847.000000	72.924467
846.000000	73.024724
845.000000	73.134678
844.000000	72.922153
843.000000	72.850148
842.000000	72.867955
841.000000	72.578959
840.000000	72.596771
839.000000	72.550168
838.000000	72.584298
837.000000	72.441146
836.000000	72.261683
835.000000	72.532291
834.000000	72.491711
833.000000	72.466561
832.000000	72.541163
831.000000	72.327790
830.000000	72.441387
829.000000	72.104743
828.000000	72.044832
827.000000	72.004241
826.000000	72.047494
825.000000	72.130625
824.000000	72.082979
823.000000	72.250944
822.000000	72.157489
821.000000	72.026392
820.000000	72.247062
819.000000	72.020362
818.000000	71.829013
817.000000	72.098822
816.000000	72.163230
815.000000	72.078595
814.000000	71.866228
813.000000	71.699962
812.000000	71.869218
811.000000	71.839487
810.000000	71.866180
809.000000	71.874780
808.000000	71.958349
807.000000	71.905824
806.000000	71.874009
805.000000	71.993919
804.000000	72.069256
803.000000	71.921407
802.000000	71.873896
801.000000	71.694916
800.000000	71.800800
799.000000	71.901343
798.000000	71.890566
797.000000	71.816677
796.000000	71.858636
795.000000	71.728631
794.000000	71.716785
793.000000	71.809465
792.000000	71.886010
791.000000	71.863109
790.000000	71.821745
789.000000	71.903282
788.000000	71.862107
787.000000	71.791419
786.000000	71.774266
785.000000	71.755428
784.000000	71.823930
783.000000	71.847008
782.000000	71.955751
781.000000	71.860544
780.000000	71.699242
779.000000	71.753207
778.000000	71.799675
777.000000	71.808857
776.000000	71.653034
775.000000	71.597291
774.000000	71.742660
773.000000	71.778616
772.000000	71.705567
771.000000	71.730284
770.000000	71.877720
769.000000	71.757336
768.000000	71.682744
767.000000	71.699728
766.000000	71.583564
765.000000	71.572594
764.000000	71.587463
763.000000	71.490372
762.000000	71.604111
761.000000	71.612639
760.000000	71.586757
759.000000	71.688065
758.000000	71.701816
757.000000	71.540845
756.000000	71.576847
755.000000	71.621280
754.000000	71.543095
753.000000	71.513552
752.000000	71.592269
751.000000	71.488118
750.000000	71.326585
749.000000	71.406692
748.000000	71.449929
747.000000	71.396776
746.000000	71.404986
745.000000	71.365458
744.000000	71.349280
743.000000	71.446199
742.000000	71.565496
741.000000	71.466688
740.000000	71.471222
739.000000	71.351701
738.000000	71.351055
737.000000	71.518150
736.000000	71.524602
735.000000	71.371594
734.000000	71.377641
733.000000	71.222789
732.000000	71.243785
731.000000	71.297119
730.000000	71.232339
729.000000	71.318826
728.000000	71.312377
727.000000	71.293726
726.000000	71.316318
725.000000	71.241452
724.000000	71.168370
723.000000	71.185501
722.000000	71.201609
721.000000	71.246129
720.000000	71.160429
719.000000	71.112872
718.000000	71.213453
717.000000	71.149412
716.000000	71.173763
715.000000	71.290082
714.000000	71.133125
713.000000	71.218439
712.000000	71.076103
711.000000	71.168886
710.000000	71.087116
709.000000	71.036681
708.000000	70.979135
707.000000	70.975691
706.000000	70.984775
705.000000	70.960860
704.000000	70.877772
703.000000	70.885224
702.000000	70.923653
701.000000	70.966010
700.000000	70.898609
699.000000	70.861604
698.000000	70.889922
697.000000	70.817667
696.000000	70.784611
695.000000	70.833708
694.000000	70.913153
693.000000	70.815140
692.000000	70.755289
691.000000	70.668768
690.000000	70.682813
689.000000	70.646253
688.000000	70.650492
687.000000	70.515041
686.000000	70.647783
685.000000	70.535347
684.000000	70.530679
683.000000	70.594240
682.000000	70.489201
681.000000	70.558844
680.000000	70.471005
679.000000	70.444540
678.000000	70.410340
677.000000	70.411511
676.000000	70.523558
675.000000	70.493483
674.000000	70.430526
673.000000	70.364025
672.000000	70.473422
671.000000	70.406265
670.000000	70.391945
669.000000	70.340486
668.000000	70.360836
667.000000	70.304010
666.000000	70.284987
665.000000	70.309115
664.000000	70.229243
663.000000	70.191787
662.000000	70.261717
661.000000	70.211709
660.000000	70.255262
659.000000	70.188860
658.000000	70.157423
657.000000	70.153549
656.000000	70.270207
655.000000	70.106310
654.000000	70.187112
653.000000	70.064996
652.000000	70.121916
651.000000	70.138473
650.000000	70.140236
649.000000	70.069901
648.000000	70.010704
647.000000	70.055222
646.000000	69.936423
645.000000	69.993618
644.000000	69.983007
643.000000	70.010698
642.000000	69.962171
641.000000	69.952104
640.000000	69.973012
639.000000	69.954936
638.000000	69.856832
637.000000	69.865725
636.000000	69.798194
635.000000	69.832628
634.000000	69.828929
633.000000	69.807875
632.000000	69.742932
631.000000	69.660813
630.000000	69.710197
629.000000	69.688156
628.000000	69.697435
627.000000	69.798362
626.000000	69.685011
625.000000	69.611547
624.000000	69.642594
623.000000	69.601461
622.000000	69.590733
621.000000	69.585638
620.000000	69.551330
619.000000	69.535990
618.000000	69.466477
617.000000	69.476093
616.000000	69.482628
615.000000	69.469177
614.000000	69.460102
613.000000	69.368329
612.000000	69.395418
611.000000	69.377990
610.000000	69.364798
609.000000	69.328389
608.000000	69.341392
607.000000	69.360748
606.000000	69.294265
605.000000	69.219683
604.000000	69.099567
603.000000	69.181804
602.000000	69.116661
601.000000	69.139639
600.000000	69.179565
599.000000	69.165613
598.000000	69.105351
597.000000	69.075064
596.000000	69.116478
595.000000	69.036111
594.000000	68.943893
593.000000	69.028106
592.000000	69.006651
591.000000	68.988989
590.000000	68.944734
589.000000	68.928358
588.000000	68.897976
587.000000	68.868955
586.000000	68.840068
585.000000	68.860117
584.000000	68.841624
583.000000	68.774637
582.000000	68.760827
581.000000	68.766607
580.000000	68.732963
579.000000	68.753987
578.000000	68.713232
577.000000	68.683307
576.000000	68.613139
575.000000	68.624474
574.000000	68.606211
573.000000	68.562373
572.000000	68.567368
571.000000	68.558861
570.000000	68.537469
569.000000	68.470956
568.000000	68.455764
567.000000	68.444236
566.000000	68.458655
565.000000	68.378716
564.000000	68.379629
563.000000	68.397899
562.000000	68.282455
561.000000	68.269088
560.000000	68.272546
559.000000	68.207332
558.000000	68.155489
557.000000	68.209190
556.000000	68.205975
555.000000	68.182216
554.000000	68.098150
553.000000	68.127964
552.000000	68.125483
551.000000	68.085208
550.000000	68.036963
549.000000	67.994840
548.000000	67.992709
547.000000	67.943494
546.000000	67.889516
545.000000	67.895076
544.000000	67.877585
543.000000	67.864380
542.000000	67.866702
541.000000	67.811445
540.000000	67.749782
539.000000	67.775619
538.000000	67.760611
537.000000	67.721759
536.000000	67.673425
535.000000	67.635882
534.000000	67.625149
533.000000	67.611709
532.000000	67.580110
531.000000	67.579166
530.000000	67.560865
529.000000	67.499376
528.000000	67.442889
527.000000	67.413609
526.000000	67.380616
525.000000	67.333927
524.000000	67.318683
523.000000	67.290975
522.000000	67.266795
521.000000	67.255872
520.000000	67.223860
519.000000	67.188320
518.000000	67.149240
517.000000	67.123528
516.000000	67.109885
515.000000	67.078840
514.000000	67.047924
513.000000	66.997778
512.000000	66.961217
511.000000	66.918919
510.000000	66.851304
509.000000	66.836046
508.000000	66.821801
507.000000	66.782764
506.000000	66.750887
505.000000	66.711746
504.000000	66.649184
503.000000	66.588824
502.000000	66.537386
501.000000	66.518317
500.000000	66.460341
499.000000	66.391796
498.000000	66.311268
497.000000	66.288610
496.000000	66.263147
495.000000	66.196703
494.000000	66.138662
493.000000	66.048408
492.000000	66.023154
491.000000	65.979172
490.000000	65.916215
489.000000	65.891106
488.000000	65.815255
487.000000	65.770829
486.000000	65.690541
485.000000	65.654247
484.000000	65.624398
483.000000	65.555828
482.000000	65.511329
481.000000	65.523071
480.000000	65.479323
479.000000	65.414320
478.000000	65.395268
477.000000	65.363641
476.000000	65.304434
475.000000	65.231476
474.000000	65.205029
473.000000	65.143010
472.000000	65.087577
471.000000	65.053791
470.000000	65.034599
469.000000	65.010979
468.000000	64.938621
467.000000	64.876311
466.000000	64.817637
465.000000	64.752023
464.000000	64.696032
463.000000	64.623927
462.000000	64.597468
461.000000	64.585530
460.000000	64.477170
459.000000	64.409273
458.000000	64.352245
457.000000	64.304274
456.000000	64.210658
455.000000	64.091055
454.000000	64.049224
453.000000	64.016612
452.000000	63.975731
451.000000	63.876698
450.000000	63.777355
449.000000	63.695840
448.000000	63.652372
447.000000	63.575722
446.000000	63.444926
445.000000	63.343558
444.000000	63.242033
443.000000	63.193669
442.000000	63.128448
441.000000	63.020904
440.000000	62.944602
439.000000	62.880886
438.000000	62.752413
437.000000	62.696762
436.000000	62.610671
435.000000	62.602476
434.000000	62.437400
433.000000	62.360810
432.000000	62.288903
431.000000	62.121582
430.000000	62.051070
429.000000	61.982200
428.000000	61.852646
427.000000	61.727208
426.000000	61.656469
425.000000	61.555316
424.000000	61.495883
423.000000	61.325568
422.000000	61.181674
421.000000	61.063346
420.000000	60.899604
419.000000	60.838934
418.000000	60.690266
417.000000	60.572128
416.000000	60.404980
415.000000	60.281566
414.000000	60.121008
413.000000	60.009793
412.000000	59.792546
411.000000	59.768580
410.000000	59.496617
409.000000	59.399916
408.000000	59.135271
407.000000	58.944977
406.000000	58.818207
405.000000	58.700377
404.000000	58.503609
403.000000	58.286393
402.000000	58.064329
401.000000	57.903943
400.000000	57.693936
399.000000	57.396247
398.000000	57.303377
397.000000	57.031413
396.000000	56.700118
395.000000	56.501893
394.000000	56.235528
393.000000	56.156068
392.000000	55.845956
391.000000	55.526669
390.000000	55.258773
389.000000	54.993032
388.000000	54.705039
387.000000	54.482100
386.000000	54.117675
385.000000	53.866298
384.000000	53.523678
383.000000	53.216135
382.000000	52.818053
381.000000	52.513153
380.000000	52.132283
379.000000	51.714958
378.000000	51.312301
377.000000	50.870145
376.000000	50.475836
375.000000	49.961203
374.000000	49.470740
373.000000	49.056477
372.000000	48.431002
371.000000	47.871426
370.000000	47.110243
369.000000	46.442773
368.000000	45.540645
367.000000	44.493549
366.000000	43.482931
365.000000	42.218588
364.000000	40.903083
363.000000	39.445792
362.000000	37.762110
361.000000	36.051771
360.000000	34.005561
359.000000	31.843564
358.000000	29.503188
357.000000	26.976917
356.000000	24.260179
355.000000	21.405956
354.000000	18.623343
353.000000	15.807716
352.000000	13.030593
351.000000	10.410869
350.000000	8.059562
349.000000	5.960361
348.000000	4.191197
347.000000	2.779845
346.000000	1.714625
345.000000	0.976924
344.000000	0.524231
343.000000	0.255877
342.000000	0.111577
341.000000	0.050772
340.000000	0.026760
339.000000	0.024960
338.000000	0.019890
337.000000	0.020762
336.000000	0.015025
335.000000	0.014087
334.000000	0.021081
333.000000	0.020349
332.000000	0.024008
331.000000	0.023335
330.000000	0.029877
329.000000	0.024426
328.000000	0.025228
327.000000	0.020897
326.000000	0.030763
325.000000	0.025730
