PE UV       SUBTECH     SPECTRUM    ASCII       PEDS        4.00        
   -1
J34_before.Sample.Raw.asc
17/12/19
14:15:04.00
17/12/19
14:15:04.00
Administrator
longitudinal
325.000000
1
Lambda 850
850L1710193
PerkinElmer UV WinLab 6.4.0.973 / 2.02.06 Lambda 800 UV/VIS, Jan 28 2016 16:58:34

0
0
2
0
0
UV/VIS
1
1
1
RBeamAtt,SBeamAtt,60mm sphere
0
0
0
0
Fix
 
0
0.16
0
0
0
 
 
 
0
 
0
319.2
0
Front
100
 
S:100 R:100
 
0
0
0
 
0
 
 
 
0
 
 
0
0
0
0
0
 
 
 
 
0
0


0
0
#HDR
-1
-1
#GR
nm
%T
1.0
0.0
900.000000
-1.000000
576
8
81.095557
0.012517
#DATA
900.000000	77.642164
899.000000	80.356862
898.000000	75.699440
897.000000	81.095557
896.000000	76.522162
895.000000	73.588627
894.000000	76.140357
893.000000	76.046712
892.000000	71.193490
891.000000	75.961541
890.000000	75.774717
889.000000	77.052805
888.000000	73.174348
887.000000	77.394245
886.000000	76.820880
885.000000	76.616326
884.000000	75.106702
883.000000	74.803972
882.000000	75.558031
881.000000	75.909836
880.000000	76.512796
879.000000	76.375155
878.000000	76.109473
877.000000	77.132817
876.000000	78.315121
875.000000	76.414257
874.000000	76.378585
873.000000	75.733222
872.000000	75.271464
871.000000	74.932088
870.000000	73.784051
869.000000	75.701984
868.000000	75.061478
867.000000	74.632073
866.000000	75.810750
865.000000	75.827072
864.000000	75.227408
863.000000	75.853449
862.000000	75.046225
861.000000	74.829865
860.000000	74.181049
859.000000	75.108687
858.000000	75.339145
857.000000	75.277057
856.000000	75.457052
855.000000	75.686303
854.000000	75.813786
853.000000	74.981223
852.000000	75.212543
851.000000	75.771676
850.000000	75.968805
849.000000	75.283089
848.000000	74.935323
847.000000	74.696975
846.000000	74.965046
845.000000	75.393619
844.000000	74.926877
843.000000	74.954210
842.000000	74.618178
841.000000	74.358723
840.000000	74.420371
839.000000	74.457754
838.000000	74.612494
837.000000	74.609272
836.000000	74.421602
835.000000	74.714572
834.000000	74.400004
833.000000	74.492548
832.000000	74.335473
831.000000	74.214914
830.000000	74.271193
829.000000	74.052234
828.000000	73.991847
827.000000	74.077805
826.000000	73.951917
825.000000	74.382907
824.000000	74.379944
823.000000	74.219898
822.000000	74.183310
821.000000	74.060892
820.000000	74.337670
819.000000	74.004419
818.000000	73.869604
817.000000	74.043684
816.000000	73.924259
815.000000	73.888164
814.000000	73.861948
813.000000	73.800100
812.000000	73.804026
811.000000	73.955911
810.000000	73.876861
809.000000	73.910964
808.000000	74.006899
807.000000	73.954541
806.000000	73.960225
805.000000	73.890749
804.000000	73.956249
803.000000	73.964535
802.000000	74.013176
801.000000	73.983716
800.000000	73.944693
799.000000	73.933736
798.000000	74.004699
797.000000	73.891113
796.000000	73.720913
795.000000	73.653283
794.000000	73.621038
793.000000	73.710582
792.000000	73.829886
791.000000	73.783734
790.000000	73.688727
789.000000	73.818391
788.000000	73.904810
787.000000	73.804894
786.000000	73.745469
785.000000	73.746730
784.000000	73.751278
783.000000	73.778217
782.000000	73.875481
781.000000	73.729617
780.000000	73.659652
779.000000	73.800805
778.000000	73.773302
777.000000	73.755497
776.000000	73.591578
775.000000	73.455662
774.000000	73.712957
773.000000	73.779487
772.000000	73.720329
771.000000	73.739785
770.000000	73.755431
769.000000	73.695022
768.000000	73.657503
767.000000	73.593721
766.000000	73.468102
765.000000	73.460105
764.000000	73.558380
763.000000	73.575600
762.000000	73.571896
761.000000	73.501687
760.000000	73.536569
759.000000	73.616127
758.000000	73.659064
757.000000	73.631882
756.000000	73.591734
755.000000	73.579872
754.000000	73.546881
753.000000	73.512255
752.000000	73.514710
751.000000	73.361784
750.000000	73.283147
749.000000	73.419179
748.000000	73.447583
747.000000	73.435106
746.000000	73.408925
745.000000	73.382626
744.000000	73.405688
743.000000	73.312686
742.000000	73.251113
741.000000	73.198650
740.000000	73.308262
739.000000	73.322638
738.000000	73.346805
737.000000	73.404385
736.000000	73.444356
735.000000	73.337641
734.000000	73.378469
733.000000	73.258297
732.000000	73.158513
731.000000	73.216417
730.000000	73.198264
729.000000	73.158786
728.000000	73.220957
727.000000	73.242617
726.000000	73.179156
725.000000	73.146675
724.000000	73.131117
723.000000	73.202377
722.000000	73.225020
721.000000	73.085926
720.000000	73.129097
719.000000	73.226479
718.000000	73.124855
717.000000	73.058846
716.000000	73.096064
715.000000	73.163393
714.000000	73.013899
713.000000	73.163760
712.000000	73.004602
711.000000	73.050433
710.000000	73.031181
709.000000	72.936340
708.000000	72.888684
707.000000	72.978276
706.000000	72.843605
705.000000	72.847588
704.000000	72.859427
703.000000	72.849231
702.000000	72.938713
701.000000	72.980475
700.000000	72.835536
699.000000	72.822210
698.000000	72.805175
697.000000	72.827355
696.000000	72.655976
695.000000	72.756985
694.000000	72.802559
693.000000	72.702562
692.000000	72.752967
691.000000	72.685828
690.000000	72.552386
689.000000	72.612608
688.000000	72.554587
687.000000	72.510185
686.000000	72.530213
685.000000	72.461411
684.000000	72.476251
683.000000	72.551439
682.000000	72.504066
681.000000	72.479351
680.000000	72.414522
679.000000	72.346116
678.000000	72.365071
677.000000	72.374553
676.000000	72.364776
675.000000	72.427183
674.000000	72.422388
673.000000	72.368157
672.000000	72.404322
671.000000	72.405631
670.000000	72.339788
669.000000	72.391549
668.000000	72.334564
667.000000	72.310646
666.000000	72.320428
665.000000	72.202221
664.000000	72.214472
663.000000	72.249692
662.000000	72.173945
661.000000	72.221370
660.000000	72.278463
659.000000	72.105233
658.000000	72.177768
657.000000	72.168373
656.000000	72.216663
655.000000	72.145774
654.000000	72.123444
653.000000	72.159863
652.000000	72.116150
651.000000	72.089123
650.000000	72.151298
649.000000	72.031836
648.000000	72.041867
647.000000	72.012426
646.000000	72.038193
645.000000	71.969797
644.000000	72.045298
643.000000	71.968612
642.000000	72.017348
641.000000	71.984279
640.000000	72.051559
639.000000	71.958807
638.000000	71.879350
637.000000	71.908811
636.000000	71.776374
635.000000	71.840993
634.000000	71.887822
633.000000	71.784108
632.000000	71.766825
631.000000	71.718653
630.000000	71.685965
629.000000	71.726898
628.000000	71.729126
627.000000	71.791929
626.000000	71.715581
625.000000	71.630902
624.000000	71.710888
623.000000	71.641301
622.000000	71.569350
621.000000	71.651115
620.000000	71.632289
619.000000	71.508740
618.000000	71.447850
617.000000	71.517633
616.000000	71.561589
615.000000	71.548655
614.000000	71.500308
613.000000	71.458861
612.000000	71.438598
611.000000	71.513660
610.000000	71.439173
609.000000	71.425249
608.000000	71.384206
607.000000	71.436325
606.000000	71.393338
605.000000	71.373614
604.000000	71.193817
603.000000	71.290519
602.000000	71.233055
601.000000	71.255933
600.000000	71.213694
599.000000	71.238527
598.000000	71.196124
597.000000	71.218426
596.000000	71.233584
595.000000	71.145603
594.000000	71.132635
593.000000	71.157581
592.000000	71.051950
591.000000	71.073441
590.000000	71.048334
589.000000	71.087838
588.000000	71.031116
587.000000	71.035477
586.000000	71.002089
585.000000	70.974799
584.000000	70.914765
583.000000	70.874297
582.000000	70.898887
581.000000	70.909096
580.000000	70.851554
579.000000	70.880820
578.000000	70.853689
577.000000	70.865267
576.000000	70.796055
575.000000	70.786871
574.000000	70.758472
573.000000	70.739332
572.000000	70.675445
571.000000	70.655534
570.000000	70.678029
569.000000	70.640308
568.000000	70.645920
567.000000	70.616519
566.000000	70.611476
565.000000	70.515606
564.000000	70.517688
563.000000	70.540353
562.000000	70.474761
561.000000	70.476685
560.000000	70.459133
559.000000	70.391182
558.000000	70.379880
557.000000	70.368504
556.000000	70.352803
555.000000	70.337133
554.000000	70.264400
553.000000	70.266066
552.000000	70.243653
551.000000	70.235690
550.000000	70.229067
549.000000	70.237840
548.000000	70.186629
547.000000	70.123292
546.000000	70.094057
545.000000	70.091483
544.000000	70.059283
543.000000	70.007967
542.000000	70.016233
541.000000	70.012124
540.000000	69.961948
539.000000	69.954821
538.000000	69.935657
537.000000	69.908490
536.000000	69.866544
535.000000	69.813958
534.000000	69.833158
533.000000	69.817902
532.000000	69.783334
531.000000	69.769770
530.000000	69.763353
529.000000	69.704307
528.000000	69.644626
527.000000	69.617146
526.000000	69.582616
525.000000	69.556402
524.000000	69.506967
523.000000	69.478569
522.000000	69.469098
521.000000	69.435800
520.000000	69.418869
519.000000	69.388787
518.000000	69.347521
517.000000	69.301772
516.000000	69.262771
515.000000	69.242752
514.000000	69.214768
513.000000	69.167639
512.000000	69.154319
511.000000	69.119970
510.000000	69.056440
509.000000	69.044152
508.000000	69.024280
507.000000	68.959903
506.000000	68.923694
505.000000	68.915325
504.000000	68.870327
503.000000	68.807164
502.000000	68.776459
501.000000	68.757817
500.000000	68.686375
499.000000	68.641390
498.000000	68.617369
497.000000	68.609235
496.000000	68.564777
495.000000	68.523306
494.000000	68.482639
493.000000	68.414628
492.000000	68.407870
491.000000	68.399701
490.000000	68.311632
489.000000	68.264189
488.000000	68.181353
487.000000	68.138529
486.000000	68.150941
485.000000	68.145750
484.000000	68.074761
483.000000	67.988990
482.000000	67.899756
481.000000	67.892601
480.000000	67.836367
479.000000	67.802310
478.000000	67.785069
477.000000	67.733201
476.000000	67.713838
475.000000	67.632962
474.000000	67.558319
473.000000	67.519436
472.000000	67.489667
471.000000	67.428625
470.000000	67.382726
469.000000	67.376648
468.000000	67.286433
467.000000	67.227810
466.000000	67.191244
465.000000	67.122188
464.000000	67.034505
463.000000	66.970067
462.000000	66.926606
461.000000	66.927071
460.000000	66.857115
459.000000	66.769917
458.000000	66.726064
457.000000	66.686834
456.000000	66.599681
455.000000	66.477407
454.000000	66.456692
453.000000	66.431424
452.000000	66.372648
451.000000	66.257527
450.000000	66.182345
449.000000	66.149778
448.000000	66.089429
447.000000	65.987933
446.000000	65.877185
445.000000	65.825981
444.000000	65.746601
443.000000	65.707311
442.000000	65.630528
441.000000	65.576254
440.000000	65.442008
439.000000	65.299702
438.000000	65.202560
437.000000	65.148975
436.000000	65.095154
435.000000	65.007585
434.000000	64.875833
433.000000	64.869511
432.000000	64.773528
431.000000	64.569824
430.000000	64.431635
429.000000	64.396496
428.000000	64.293463
427.000000	64.097517
426.000000	64.012228
425.000000	63.931499
424.000000	63.835050
423.000000	63.664071
422.000000	63.545287
421.000000	63.428270
420.000000	63.236678
419.000000	63.047032
418.000000	62.999345
417.000000	62.836402
416.000000	62.674672
415.000000	62.516750
414.000000	62.328934
413.000000	62.151314
412.000000	61.984982
411.000000	61.868029
410.000000	61.651234
409.000000	61.471747
408.000000	61.217093
407.000000	61.047915
406.000000	60.877841
405.000000	60.679219
404.000000	60.386201
403.000000	60.241276
402.000000	59.936548
401.000000	59.766049
400.000000	59.517920
399.000000	59.259853
398.000000	59.072022
397.000000	58.893871
396.000000	58.483282
395.000000	58.221181
394.000000	57.933654
393.000000	57.720955
392.000000	57.481594
391.000000	57.110059
390.000000	56.850527
389.000000	56.469292
388.000000	56.058318
387.000000	55.895238
386.000000	55.475537
385.000000	55.121530
384.000000	54.786607
383.000000	54.365475
382.000000	53.830957
381.000000	53.353091
380.000000	53.031301
379.000000	52.467072
378.000000	51.752124
377.000000	51.127746
376.000000	50.618244
375.000000	49.966500
374.000000	49.281366
373.000000	48.432824
372.000000	47.541732
371.000000	46.444851
370.000000	45.399592
369.000000	44.199510
368.000000	42.712973
367.000000	41.127957
366.000000	39.334101
365.000000	37.407578
364.000000	35.247957
363.000000	32.870801
362.000000	30.303955
361.000000	27.589863
360.000000	24.760517
359.000000	21.835460
358.000000	18.818346
357.000000	15.805673
356.000000	12.877023
355.000000	10.158382
354.000000	7.727084
353.000000	5.586957
352.000000	3.870552
351.000000	2.513571
350.000000	1.535390
349.000000	0.882565
348.000000	0.462004
347.000000	0.215806
346.000000	0.096527
345.000000	0.054724
344.000000	0.027355
343.000000	0.012517
342.000000	0.015476
341.000000	0.023426
340.000000	0.017776
339.000000	0.014058
338.000000	0.019412
337.000000	0.018944
336.000000	0.018470
335.000000	0.021370
334.000000	0.027118
333.000000	0.022749
332.000000	0.020071
331.000000	0.028905
330.000000	0.030837
329.000000	0.028849
328.000000	0.031006
327.000000	0.025230
326.000000	0.032113
325.000000	0.031030
