PE UV       SUBTECH     SPECTRUM    ASCII       PEDS        4.00        
   -1
J38_before.Sample.Raw.asc
17/12/19
14:25:02.00
17/12/19
14:25:02.00
Administrator
longitudinal
325.000000
1
Lambda 850
850L1710193
PerkinElmer UV WinLab 6.4.0.973 / 2.02.06 Lambda 800 UV/VIS, Jan 28 2016 16:58:34

0
0
2
0
0
UV/VIS
1
1
1
RBeamAtt,SBeamAtt,60mm sphere
0
0
0
0
Fix
 
0
0.16
0
0
0
 
 
 
0
 
0
319.2
0
Front
100
 
S:100 R:100
 
0
0
0
 
0
 
 
 
0
 
 
0
0
0
0
0
 
 
 
 
0
0


0
0
#HDR
-1
-1
#GR
nm
%T
1.0
0.0
900.000000
-1.000000
576
8
83.560037
0.012246
#DATA
900.000000	77.256529
899.000000	83.560037
898.000000	75.571500
897.000000	78.231344
896.000000	76.932914
895.000000	73.144849
894.000000	74.911966
893.000000	75.214605
892.000000	73.491666
891.000000	72.772171
890.000000	74.721482
889.000000	78.508986
888.000000	75.225683
887.000000	73.937070
886.000000	74.561791
885.000000	75.864555
884.000000	74.087731
883.000000	72.711154
882.000000	75.898946
881.000000	72.562242
880.000000	75.434771
879.000000	74.584467
878.000000	74.681593
877.000000	74.975643
876.000000	75.531039
875.000000	76.219131
874.000000	74.791757
873.000000	73.618124
872.000000	72.888287
871.000000	74.023957
870.000000	74.827463
869.000000	74.656521
868.000000	73.505444
867.000000	73.608517
866.000000	73.626686
865.000000	74.649433
864.000000	74.242085
863.000000	75.044530
862.000000	74.476500
861.000000	73.567688
860.000000	72.688746
859.000000	74.199496
858.000000	74.481456
857.000000	74.191048
856.000000	74.052755
855.000000	74.629444
854.000000	74.835888
853.000000	74.319063
852.000000	74.207420
851.000000	74.321186
850.000000	73.977835
849.000000	73.813179
848.000000	73.536721
847.000000	73.796648
846.000000	73.731255
845.000000	73.960389
844.000000	73.660333
843.000000	73.756831
842.000000	73.846473
841.000000	73.731677
840.000000	73.229486
839.000000	73.246340
838.000000	73.463634
837.000000	73.667228
836.000000	73.261153
835.000000	73.353109
834.000000	73.267453
833.000000	73.405374
832.000000	73.366798
831.000000	73.313919
830.000000	73.134732
829.000000	72.943295
828.000000	72.875336
827.000000	72.914246
826.000000	72.932001
825.000000	73.112720
824.000000	72.907982
823.000000	73.112899
822.000000	72.998084
821.000000	72.923637
820.000000	72.946113
819.000000	72.819834
818.000000	72.591102
817.000000	72.793085
816.000000	72.991292
815.000000	72.841006
814.000000	72.686164
813.000000	72.618613
812.000000	72.779124
811.000000	72.709148
810.000000	72.638074
809.000000	72.625646
808.000000	72.641916
807.000000	72.600260
806.000000	72.641909
805.000000	72.665498
804.000000	72.735024
803.000000	72.677222
802.000000	72.680253
801.000000	72.816365
800.000000	72.751808
799.000000	72.725976
798.000000	72.786827
797.000000	72.774613
796.000000	72.659006
795.000000	72.469156
794.000000	72.444207
793.000000	72.417265
792.000000	72.510702
791.000000	72.594855
790.000000	72.525227
789.000000	72.650463
788.000000	72.658473
787.000000	72.524128
786.000000	72.545357
785.000000	72.494459
784.000000	72.626339
783.000000	72.720712
782.000000	72.659619
781.000000	72.509105
780.000000	72.315701
779.000000	72.382538
778.000000	72.582843
777.000000	72.503578
776.000000	72.301885
775.000000	72.364902
774.000000	72.491502
773.000000	72.450817
772.000000	72.379190
771.000000	72.348135
770.000000	72.380213
769.000000	72.390632
768.000000	72.372066
767.000000	72.294658
766.000000	72.220976
765.000000	72.307482
764.000000	72.359551
763.000000	72.267900
762.000000	72.235403
761.000000	72.244029
760.000000	72.298599
759.000000	72.352227
758.000000	72.403876
757.000000	72.255162
756.000000	72.286958
755.000000	72.312235
754.000000	72.151270
753.000000	72.089638
752.000000	72.179913
751.000000	72.115425
750.000000	72.083513
749.000000	72.095587
748.000000	72.033516
747.000000	72.072928
746.000000	72.070010
745.000000	71.984631
744.000000	72.096880
743.000000	72.158152
742.000000	72.130218
741.000000	72.047927
740.000000	72.055050
739.000000	72.041161
738.000000	72.017067
737.000000	72.088364
736.000000	72.093472
735.000000	71.963113
734.000000	71.984501
733.000000	71.903015
732.000000	71.854914
731.000000	71.873010
730.000000	71.824044
729.000000	71.876586
728.000000	71.864026
727.000000	71.882560
726.000000	71.923478
725.000000	71.798145
724.000000	71.715269
723.000000	71.830404
722.000000	71.832061
721.000000	71.729609
720.000000	71.725632
719.000000	71.828779
718.000000	71.805770
717.000000	71.688569
716.000000	71.676713
715.000000	71.810261
714.000000	71.624422
713.000000	71.789339
712.000000	71.510150
711.000000	71.581785
710.000000	71.593722
709.000000	71.536655
708.000000	71.516612
707.000000	71.605498
706.000000	71.535897
705.000000	71.545844
704.000000	71.468396
703.000000	71.467221
702.000000	71.504856
701.000000	71.557289
700.000000	71.419928
699.000000	71.383804
698.000000	71.456143
697.000000	71.412116
696.000000	71.309827
695.000000	71.287949
694.000000	71.388465
693.000000	71.311492
692.000000	71.218167
691.000000	71.132812
690.000000	71.231207
689.000000	71.184412
688.000000	71.149096
687.000000	71.102387
686.000000	71.237910
685.000000	71.026362
684.000000	70.989511
683.000000	71.062401
682.000000	70.988946
681.000000	70.935490
680.000000	70.949304
679.000000	70.959935
678.000000	70.860956
677.000000	70.825421
676.000000	70.916636
675.000000	70.877573
674.000000	70.909864
673.000000	70.899992
672.000000	70.900808
671.000000	70.913277
670.000000	70.802765
669.000000	70.797780
668.000000	70.823986
667.000000	70.795505
666.000000	70.795312
665.000000	70.720757
664.000000	70.709134
663.000000	70.680390
662.000000	70.701734
661.000000	70.712831
660.000000	70.670187
659.000000	70.622168
658.000000	70.662186
657.000000	70.645567
656.000000	70.705000
655.000000	70.517500
654.000000	70.545462
653.000000	70.560476
652.000000	70.545956
651.000000	70.548527
650.000000	70.562871
649.000000	70.520062
648.000000	70.486099
647.000000	70.467379
646.000000	70.482184
645.000000	70.463169
644.000000	70.431839
643.000000	70.437058
642.000000	70.437781
641.000000	70.378791
640.000000	70.388704
639.000000	70.413370
638.000000	70.322488
637.000000	70.292873
636.000000	70.162322
635.000000	70.227774
634.000000	70.180407
633.000000	70.200385
632.000000	70.175405
631.000000	70.086820
630.000000	70.076660
629.000000	70.074096
628.000000	70.143934
627.000000	70.122253
626.000000	70.064995
625.000000	69.976474
624.000000	70.034490
623.000000	69.974625
622.000000	69.964449
621.000000	69.947420
620.000000	69.918875
619.000000	69.849740
618.000000	69.802686
617.000000	69.795092
616.000000	69.873019
615.000000	69.811607
614.000000	69.825218
613.000000	69.756470
612.000000	69.761700
611.000000	69.756925
610.000000	69.747141
609.000000	69.699505
608.000000	69.656118
607.000000	69.697270
606.000000	69.676980
605.000000	69.604732
604.000000	69.494694
603.000000	69.610597
602.000000	69.541658
601.000000	69.496261
600.000000	69.509525
599.000000	69.500167
598.000000	69.438645
597.000000	69.504241
596.000000	69.395422
595.000000	69.375360
594.000000	69.319853
593.000000	69.329735
592.000000	69.311126
591.000000	69.231030
590.000000	69.231237
589.000000	69.249330
588.000000	69.197957
587.000000	69.187456
586.000000	69.159663
585.000000	69.107891
584.000000	69.136905
583.000000	69.090558
582.000000	69.028747
581.000000	69.063951
580.000000	69.048984
579.000000	69.029824
578.000000	68.988826
577.000000	68.980342
576.000000	68.948992
575.000000	68.877785
574.000000	68.904600
573.000000	68.871666
572.000000	68.879344
571.000000	68.794296
570.000000	68.823074
569.000000	68.748251
568.000000	68.743671
567.000000	68.667088
566.000000	68.705586
565.000000	68.663421
564.000000	68.623142
563.000000	68.598857
562.000000	68.537273
561.000000	68.517113
560.000000	68.534853
559.000000	68.519980
558.000000	68.473457
557.000000	68.453171
556.000000	68.422098
555.000000	68.408972
554.000000	68.349852
553.000000	68.335878
552.000000	68.316483
551.000000	68.294664
550.000000	68.257751
549.000000	68.209215
548.000000	68.206016
547.000000	68.193406
546.000000	68.136852
545.000000	68.137927
544.000000	68.105569
543.000000	68.061834
542.000000	68.032584
541.000000	67.993038
540.000000	67.960126
539.000000	67.980647
538.000000	67.956272
537.000000	67.925258
536.000000	67.862025
535.000000	67.812826
534.000000	67.790365
533.000000	67.795926
532.000000	67.772890
531.000000	67.749822
530.000000	67.722341
529.000000	67.665497
528.000000	67.633886
527.000000	67.562860
526.000000	67.520938
525.000000	67.509413
524.000000	67.489926
523.000000	67.457798
522.000000	67.428287
521.000000	67.418070
520.000000	67.378896
519.000000	67.333781
518.000000	67.302821
517.000000	67.268594
516.000000	67.217387
515.000000	67.172409
514.000000	67.133000
513.000000	67.076438
512.000000	67.035894
511.000000	67.021451
510.000000	66.943449
509.000000	66.895028
508.000000	66.871305
507.000000	66.821085
506.000000	66.760767
505.000000	66.718315
504.000000	66.670847
503.000000	66.618147
502.000000	66.551448
501.000000	66.529663
500.000000	66.470371
499.000000	66.379036
498.000000	66.314436
497.000000	66.294155
496.000000	66.245461
495.000000	66.184215
494.000000	66.125652
493.000000	66.011964
492.000000	65.993139
491.000000	65.934789
490.000000	65.836560
489.000000	65.786310
488.000000	65.731376
487.000000	65.698720
486.000000	65.638582
485.000000	65.597612
484.000000	65.526593
483.000000	65.489886
482.000000	65.438871
481.000000	65.403720
480.000000	65.369480
479.000000	65.305630
478.000000	65.288895
477.000000	65.258749
476.000000	65.183383
475.000000	65.118324
474.000000	65.081231
473.000000	65.007313
472.000000	64.961730
471.000000	64.920874
470.000000	64.890340
469.000000	64.848185
468.000000	64.756677
467.000000	64.699017
466.000000	64.651239
465.000000	64.567752
464.000000	64.529178
463.000000	64.471558
462.000000	64.428528
461.000000	64.370195
460.000000	64.302936
459.000000	64.249791
458.000000	64.169839
457.000000	64.080796
456.000000	63.980903
455.000000	63.884008
454.000000	63.861555
453.000000	63.777652
452.000000	63.676062
451.000000	63.594447
450.000000	63.515126
449.000000	63.494381
448.000000	63.398062
447.000000	63.310741
446.000000	63.244967
445.000000	63.150026
444.000000	63.054402
443.000000	62.993620
442.000000	62.887907
441.000000	62.762283
440.000000	62.643312
439.000000	62.632742
438.000000	62.477920
437.000000	62.413036
436.000000	62.359309
435.000000	62.268598
434.000000	62.152766
433.000000	62.079847
432.000000	61.965008
431.000000	61.799772
430.000000	61.747301
429.000000	61.638578
428.000000	61.503707
427.000000	61.374537
426.000000	61.293229
425.000000	61.204404
424.000000	61.124262
423.000000	60.960374
422.000000	60.829658
421.000000	60.682882
420.000000	60.578034
419.000000	60.366506
418.000000	60.232361
417.000000	60.125429
416.000000	59.935157
415.000000	59.842873
414.000000	59.668931
413.000000	59.536215
412.000000	59.368902
411.000000	59.269805
410.000000	59.046064
409.000000	58.872396
408.000000	58.648458
407.000000	58.404614
406.000000	58.275003
405.000000	58.127770
404.000000	57.906815
403.000000	57.710777
402.000000	57.448980
401.000000	57.239042
400.000000	57.047627
399.000000	56.769670
398.000000	56.565125
397.000000	56.417163
396.000000	56.092855
395.000000	55.855060
394.000000	55.578674
393.000000	55.291571
392.000000	55.103008
391.000000	54.712620
390.000000	54.469738
389.000000	54.155923
388.000000	53.905217
387.000000	53.636273
386.000000	53.275766
385.000000	52.923773
384.000000	52.559529
383.000000	52.310174
382.000000	51.848072
381.000000	51.457229
380.000000	51.129076
379.000000	50.835200
378.000000	50.358766
377.000000	49.802820
376.000000	49.366820
375.000000	48.860294
374.000000	48.366368
373.000000	47.916916
372.000000	47.186867
371.000000	46.567659
370.000000	45.845995
369.000000	45.122742
368.000000	44.132304
367.000000	43.177044
366.000000	42.018993
365.000000	40.751155
364.000000	39.438415
363.000000	37.841908
362.000000	36.179934
361.000000	34.316228
360.000000	32.303645
359.000000	30.074588
358.000000	27.664464
357.000000	25.104180
356.000000	22.465679
355.000000	19.643845
354.000000	16.960527
353.000000	14.207248
352.000000	11.531649
351.000000	9.090788
350.000000	6.888513
349.000000	4.994032
348.000000	3.427351
347.000000	2.208746
346.000000	1.338521
345.000000	0.750021
344.000000	0.383451
343.000000	0.180108
342.000000	0.082918
341.000000	0.040924
340.000000	0.027046
339.000000	0.019127
338.000000	0.023237
337.000000	0.012246
336.000000	0.023638
335.000000	0.022424
334.000000	0.020890
333.000000	0.017950
332.000000	0.018342
331.000000	0.027656
330.000000	0.032951
329.000000	0.028753
328.000000	0.030235
327.000000	0.034763
326.000000	0.031342
325.000000	0.041052
