PE UV       SUBTECH     SPECTRUM    ASCII       PEDS        4.00        
   -1
J43_before.Sample.Raw.asc
17/12/19
14:30:03.00
17/12/19
14:30:03.00
Administrator
longitudinal
325.000000
1
Lambda 850
850L1710193
PerkinElmer UV WinLab 6.4.0.973 / 2.02.06 Lambda 800 UV/VIS, Jan 28 2016 16:58:34

0
0
2
0
0
UV/VIS
1
1
1
RBeamAtt,SBeamAtt,60mm sphere
0
0
0
0
Fix
 
0
0.16
0
0
0
 
 
 
0
 
0
319.2
0
Front
100
 
S:100 R:100
 
0
0
0
 
0
 
 
 
0
 
 
0
0
0
0
0
 
 
 
 
0
0


0
0
#HDR
-1
-1
#GR
nm
%T
1.0
0.0
900.000000
-1.000000
576
8
75.986220
0.007367
#DATA
900.000000	74.508322
899.000000	75.212638
898.000000	71.050523
897.000000	74.856606
896.000000	70.375393
895.000000	73.688807
894.000000	75.986220
893.000000	75.119008
892.000000	71.129790
891.000000	74.726626
890.000000	75.390257
889.000000	74.161884
888.000000	70.264453
887.000000	72.945411
886.000000	74.765427
885.000000	73.792743
884.000000	74.575429
883.000000	71.104170
882.000000	73.193070
881.000000	71.079106
880.000000	73.428487
879.000000	74.125632
878.000000	73.337255
877.000000	72.703578
876.000000	74.309005
875.000000	73.747584
874.000000	73.944589
873.000000	73.771529
872.000000	72.961062
871.000000	72.814154
870.000000	73.161229
869.000000	72.858485
868.000000	72.960535
867.000000	72.461336
866.000000	72.760563
865.000000	73.539387
864.000000	73.666741
863.000000	73.988190
862.000000	73.566247
861.000000	72.789002
860.000000	71.980462
859.000000	72.839207
858.000000	73.051581
857.000000	73.236002
856.000000	73.167854
855.000000	73.587217
854.000000	73.686595
853.000000	73.108246
852.000000	73.483751
851.000000	73.716064
850.000000	73.378411
849.000000	72.724044
848.000000	73.035524
847.000000	72.979255
846.000000	73.122569
845.000000	72.990669
844.000000	72.423428
843.000000	72.786310
842.000000	72.663648
841.000000	72.418411
840.000000	72.347238
839.000000	72.393712
838.000000	72.238767
837.000000	72.440896
836.000000	72.209158
835.000000	72.422999
834.000000	72.229088
833.000000	72.318865
832.000000	72.435211
831.000000	72.269680
830.000000	72.186437
829.000000	72.075537
828.000000	72.022520
827.000000	72.126639
826.000000	72.091252
825.000000	72.350857
824.000000	72.144811
823.000000	72.089514
822.000000	71.906155
821.000000	71.905353
820.000000	72.003248
819.000000	71.822394
818.000000	71.698838
817.000000	71.920896
816.000000	71.805167
815.000000	71.788310
814.000000	71.793407
813.000000	71.717446
812.000000	71.470443
811.000000	71.473866
810.000000	71.553732
809.000000	71.768270
808.000000	71.788388
807.000000	71.760433
806.000000	71.956662
805.000000	71.884129
804.000000	71.967072
803.000000	71.887267
802.000000	71.666845
801.000000	71.799977
800.000000	71.718406
799.000000	71.746931
798.000000	71.861095
797.000000	71.726982
796.000000	71.556123
795.000000	71.417041
794.000000	71.356264
793.000000	71.454058
792.000000	71.645456
791.000000	71.710344
790.000000	71.552695
789.000000	71.602713
788.000000	71.572822
787.000000	71.477105
786.000000	71.486282
785.000000	71.552382
784.000000	71.485148
783.000000	71.464888
782.000000	71.589205
781.000000	71.487497
780.000000	71.482260
779.000000	71.545043
778.000000	71.483116
777.000000	71.521360
776.000000	71.417703
775.000000	71.426831
774.000000	71.532730
773.000000	71.525819
772.000000	71.503948
771.000000	71.378649
770.000000	71.363918
769.000000	71.402218
768.000000	71.316123
767.000000	71.243816
766.000000	71.192681
765.000000	71.197654
764.000000	71.186959
763.000000	71.187608
762.000000	71.230621
761.000000	71.240018
760.000000	71.341297
759.000000	71.303126
758.000000	71.311343
757.000000	71.217510
756.000000	71.196319
755.000000	71.190476
754.000000	71.119402
753.000000	71.096264
752.000000	71.099588
751.000000	71.052760
750.000000	70.958899
749.000000	70.948160
748.000000	70.922500
747.000000	71.018819
746.000000	70.991785
745.000000	70.898502
744.000000	70.959849
743.000000	71.022394
742.000000	71.040047
741.000000	70.962660
740.000000	71.025587
739.000000	70.936620
738.000000	70.873057
737.000000	70.911290
736.000000	70.984690
735.000000	70.927213
734.000000	70.878134
733.000000	70.774334
732.000000	70.804756
731.000000	70.757990
730.000000	70.741856
729.000000	70.671309
728.000000	70.676892
727.000000	70.757270
726.000000	70.796636
725.000000	70.763339
724.000000	70.614753
723.000000	70.701526
722.000000	70.679440
721.000000	70.597826
720.000000	70.578357
719.000000	70.574534
718.000000	70.583513
717.000000	70.533171
716.000000	70.599487
715.000000	70.630009
714.000000	70.534196
713.000000	70.676456
712.000000	70.444623
711.000000	70.477501
710.000000	70.372402
709.000000	70.355296
708.000000	70.404561
707.000000	70.399089
706.000000	70.428606
705.000000	70.325850
704.000000	70.331857
703.000000	70.319739
702.000000	70.370897
701.000000	70.326022
700.000000	70.253881
699.000000	70.204613
698.000000	70.297195
697.000000	70.292087
696.000000	70.176471
695.000000	70.138630
694.000000	70.189198
693.000000	70.147018
692.000000	70.092601
691.000000	69.961597
690.000000	70.024672
689.000000	69.940693
688.000000	69.936339
687.000000	69.862367
686.000000	69.869276
685.000000	69.749467
684.000000	69.852734
683.000000	69.881344
682.000000	69.780971
681.000000	69.761833
680.000000	69.692826
679.000000	69.700691
678.000000	69.718692
677.000000	69.668279
676.000000	69.650632
675.000000	69.714204
674.000000	69.641611
673.000000	69.645560
672.000000	69.598675
671.000000	69.592857
670.000000	69.594329
669.000000	69.562286
668.000000	69.573068
667.000000	69.577104
666.000000	69.577237
665.000000	69.501256
664.000000	69.421640
663.000000	69.410626
662.000000	69.440996
661.000000	69.378202
660.000000	69.439649
659.000000	69.404712
658.000000	69.378026
657.000000	69.309079
656.000000	69.379626
655.000000	69.288074
654.000000	69.256474
653.000000	69.276874
652.000000	69.211542
651.000000	69.238273
650.000000	69.287529
649.000000	69.218848
648.000000	69.176364
647.000000	69.166669
646.000000	69.140434
645.000000	69.094813
644.000000	69.095893
643.000000	69.105614
642.000000	69.105588
641.000000	69.054242
640.000000	69.012270
639.000000	69.039109
638.000000	68.930713
637.000000	68.988398
636.000000	68.850110
635.000000	68.852162
634.000000	68.886487
633.000000	68.825950
632.000000	68.804985
631.000000	68.739022
630.000000	68.715300
629.000000	68.706678
628.000000	68.712051
627.000000	68.729974
626.000000	68.674494
625.000000	68.578613
624.000000	68.646726
623.000000	68.528937
622.000000	68.584472
621.000000	68.543576
620.000000	68.529198
619.000000	68.467124
618.000000	68.452648
617.000000	68.408804
616.000000	68.403675
615.000000	68.393825
614.000000	68.363974
613.000000	68.297427
612.000000	68.273495
611.000000	68.310545
610.000000	68.301615
609.000000	68.262080
608.000000	68.241368
607.000000	68.244800
606.000000	68.195358
605.000000	68.118885
604.000000	68.025260
603.000000	68.080956
602.000000	68.010090
601.000000	67.982031
600.000000	68.050025
599.000000	68.005317
598.000000	67.957927
597.000000	67.946695
596.000000	67.954994
595.000000	67.848219
594.000000	67.793272
593.000000	67.846532
592.000000	67.830895
591.000000	67.799028
590.000000	67.757023
589.000000	67.706944
588.000000	67.694838
587.000000	67.641256
586.000000	67.631706
585.000000	67.658516
584.000000	67.604709
583.000000	67.581135
582.000000	67.547889
581.000000	67.532398
580.000000	67.488859
579.000000	67.454231
578.000000	67.457247
577.000000	67.423997
576.000000	67.369830
575.000000	67.362873
574.000000	67.366848
573.000000	67.321724
572.000000	67.247702
571.000000	67.217665
570.000000	67.207920
569.000000	67.188149
568.000000	67.162360
567.000000	67.118338
566.000000	67.112186
565.000000	67.073163
564.000000	67.021749
563.000000	67.000583
562.000000	66.990652
561.000000	66.951867
560.000000	66.907924
559.000000	66.827297
558.000000	66.801436
557.000000	66.784422
556.000000	66.786176
555.000000	66.784221
554.000000	66.706335
553.000000	66.676117
552.000000	66.671522
551.000000	66.662534
550.000000	66.615060
549.000000	66.573970
548.000000	66.550002
547.000000	66.498701
546.000000	66.473765
545.000000	66.474355
544.000000	66.407124
543.000000	66.347363
542.000000	66.337560
541.000000	66.285959
540.000000	66.251229
539.000000	66.277217
538.000000	66.244494
537.000000	66.190969
536.000000	66.133830
535.000000	66.089046
534.000000	66.083971
533.000000	66.059788
532.000000	66.003550
531.000000	65.975311
530.000000	65.960281
529.000000	65.899755
528.000000	65.824332
527.000000	65.772977
526.000000	65.749483
525.000000	65.725048
524.000000	65.689591
523.000000	65.634127
522.000000	65.592704
521.000000	65.574531
520.000000	65.553489
519.000000	65.510684
518.000000	65.448975
517.000000	65.376254
516.000000	65.355317
515.000000	65.331710
514.000000	65.282597
513.000000	65.226410
512.000000	65.196686
511.000000	65.165903
510.000000	65.095254
509.000000	65.058304
508.000000	65.027205
507.000000	64.967274
506.000000	64.896662
505.000000	64.867897
504.000000	64.825172
503.000000	64.760897
502.000000	64.692131
501.000000	64.620520
500.000000	64.558268
499.000000	64.503113
498.000000	64.426418
497.000000	64.406777
496.000000	64.322714
495.000000	64.232509
494.000000	64.195194
493.000000	64.105376
492.000000	64.011785
491.000000	63.951596
490.000000	63.887699
489.000000	63.770336
488.000000	63.700706
487.000000	63.664643
486.000000	63.588350
485.000000	63.527687
484.000000	63.495956
483.000000	63.430715
482.000000	63.354333
481.000000	63.333694
480.000000	63.275973
479.000000	63.208606
478.000000	63.137805
477.000000	63.085894
476.000000	63.034016
475.000000	62.940716
474.000000	62.883447
473.000000	62.835039
472.000000	62.776318
471.000000	62.736443
470.000000	62.680052
469.000000	62.642184
468.000000	62.555202
467.000000	62.510473
466.000000	62.462393
465.000000	62.349621
464.000000	62.266848
463.000000	62.176673
462.000000	62.117665
461.000000	62.084610
460.000000	62.001432
459.000000	61.942132
458.000000	61.831307
457.000000	61.736434
456.000000	61.631036
455.000000	61.540838
454.000000	61.477975
453.000000	61.384707
452.000000	61.355468
451.000000	61.220290
450.000000	61.154894
449.000000	61.075642
448.000000	60.985409
447.000000	60.854644
446.000000	60.810776
445.000000	60.685580
444.000000	60.554910
443.000000	60.499039
442.000000	60.414496
441.000000	60.310188
440.000000	60.173885
439.000000	60.100657
438.000000	60.040890
437.000000	59.898356
436.000000	59.830628
435.000000	59.730533
434.000000	59.576437
433.000000	59.497752
432.000000	59.401973
431.000000	59.248229
430.000000	59.173365
429.000000	59.119213
428.000000	58.965637
427.000000	58.818686
426.000000	58.737911
425.000000	58.589541
424.000000	58.530906
423.000000	58.381101
422.000000	58.216112
421.000000	58.150240
420.000000	57.967138
419.000000	57.766126
418.000000	57.615811
417.000000	57.508204
416.000000	57.316097
415.000000	57.190122
414.000000	56.993976
413.000000	56.867363
412.000000	56.618591
411.000000	56.522804
410.000000	56.320009
409.000000	56.135691
408.000000	55.895288
407.000000	55.735198
406.000000	55.502713
405.000000	55.306541
404.000000	55.082565
403.000000	54.810108
402.000000	54.546363
401.000000	54.360478
400.000000	54.115555
399.000000	53.885529
398.000000	53.683222
397.000000	53.370778
396.000000	53.066315
395.000000	52.721251
394.000000	52.460310
393.000000	52.214303
392.000000	51.907718
391.000000	51.589525
390.000000	51.230004
389.000000	50.952624
388.000000	50.643244
387.000000	50.284169
386.000000	49.909722
385.000000	49.661405
384.000000	49.202989
383.000000	48.847048
382.000000	48.376851
381.000000	47.979592
380.000000	47.546800
379.000000	47.047883
378.000000	46.567192
377.000000	46.110813
376.000000	45.619320
375.000000	45.009297
374.000000	44.426043
373.000000	44.029278
372.000000	43.365257
371.000000	42.572706
370.000000	41.890095
369.000000	41.051453
368.000000	40.002724
367.000000	39.033548
366.000000	37.858488
365.000000	36.646809
364.000000	35.364930
363.000000	33.748127
362.000000	32.145465
361.000000	30.361795
360.000000	28.404045
359.000000	26.292269
358.000000	24.077821
357.000000	21.648110
356.000000	19.225013
355.000000	16.699035
354.000000	14.217523
353.000000	11.751108
352.000000	9.428663
351.000000	7.291334
350.000000	5.453414
349.000000	3.867600
348.000000	2.628538
347.000000	1.648794
346.000000	0.969753
345.000000	0.531316
344.000000	0.269550
343.000000	0.132334
342.000000	0.052731
341.000000	0.027251
340.000000	0.025326
339.000000	0.020561
338.000000	0.014918
337.000000	0.007367
336.000000	0.018470
335.000000	0.024820
334.000000	0.023573
333.000000	0.029180
332.000000	0.025929
331.000000	0.016901
330.000000	0.011240
329.000000	0.019906
328.000000	0.037072
327.000000	0.029660
326.000000	0.027581
325.000000	0.036041
