PE UV       SUBTECH     SPECTRUM    ASCII       PEDS        4.00        
   -1
100% or 0 Absorbance Baseline.Correction.Raw.asc
18/05/03
11:18:24.00
18/05/03
11:18:24.00
Administrator

325.000000
1
Lambda 850
850L1710193
PerkinElmer UV WinLab 6.4.0.973 / 2.02.06 Lambda 800 UV/VIS, Jan 28 2016 16:58:34

0
0
2
0
0
UV/VIS
0
1
1
RBeamAtt,SBeamAtt,60mm sphere
0
0
0
0
Fix
 
0
0.16
0
0
0
 
 
 
0
 
0
319.2
0
Front
100
 
S:100 R:100
 
0
0
0
 
0
 
 
 
0
 
 
0
0
0
0
0
 
 
 
 
0
0


0
0
#HDR
-1
-1
#GR
nm
%T
1.0
0.0
900.000000
-1.000000
576
8
119.711300
101.937200
#DATA
900.000000	113.009000
899.000000	114.381400
898.000000	112.674200
897.000000	119.295300
896.000000	108.481300
895.000000	118.341500
894.000000	115.512400
893.000000	111.107000
892.000000	112.177900
891.000000	110.619200
890.000000	113.442100
889.000000	111.548800
888.000000	114.896600
887.000000	114.897900
886.000000	112.781200
885.000000	112.637000
884.000000	113.004100
883.000000	115.027500
882.000000	113.499300
881.000000	117.444500
880.000000	114.965500
879.000000	115.587900
878.000000	117.245600
877.000000	114.553700
876.000000	114.944100
875.000000	115.621400
874.000000	115.170600
873.000000	116.292400
872.000000	116.720700
871.000000	116.033300
870.000000	116.336800
869.000000	116.211700
868.000000	115.461700
867.000000	115.542500
866.000000	115.441000
865.000000	117.117200
864.000000	116.230400
863.000000	116.390100
862.000000	116.739200
861.000000	117.495100
860.000000	117.610000
859.000000	116.825000
858.000000	117.724900
857.000000	117.111400
856.000000	117.300000
855.000000	117.621200
854.000000	118.123700
853.000000	117.303000
852.000000	117.268400
851.000000	117.964300
850.000000	118.521500
849.000000	118.391000
848.000000	118.159600
847.000000	117.989000
846.000000	118.317800
845.000000	118.176600
844.000000	118.831100
843.000000	118.214100
842.000000	118.308200
841.000000	118.312400
840.000000	118.643900
839.000000	118.766600
838.000000	118.643500
837.000000	118.598900
836.000000	118.883200
835.000000	119.255700
834.000000	119.311700
833.000000	119.147200
832.000000	119.170300
831.000000	118.957900
830.000000	119.175400
829.000000	119.062400
828.000000	119.155500
827.000000	119.173300
826.000000	119.120100
825.000000	119.320800
824.000000	119.492000
823.000000	119.350300
822.000000	119.600600
821.000000	119.377400
820.000000	119.285200
819.000000	119.387100
818.000000	119.417700
817.000000	119.341800
816.000000	119.550400
815.000000	119.621100
814.000000	119.515700
813.000000	119.535600
812.000000	119.468000
811.000000	119.711300
810.000000	119.565900
809.000000	119.281800
808.000000	119.160000
807.000000	119.300200
806.000000	119.246100
805.000000	119.249100
804.000000	119.226600
803.000000	119.265300
802.000000	119.445000
801.000000	119.481300
800.000000	119.352900
799.000000	119.206200
798.000000	119.062000
797.000000	119.132000
796.000000	119.141400
795.000000	119.037200
794.000000	119.112400
793.000000	119.161700
792.000000	119.079900
791.000000	118.986200
790.000000	118.898000
789.000000	118.802300
788.000000	118.739100
787.000000	118.745500
786.000000	118.648600
785.000000	118.359400
784.000000	118.464300
783.000000	118.661100
782.000000	118.711700
781.000000	118.514500
780.000000	118.393100
779.000000	118.416300
778.000000	118.266200
777.000000	118.332400
776.000000	118.420200
775.000000	118.336800
774.000000	118.278400
773.000000	118.247500
772.000000	118.125600
771.000000	118.132800
770.000000	118.191200
769.000000	118.109100
768.000000	118.022200
767.000000	117.934600
766.000000	117.789400
765.000000	117.724000
764.000000	117.738200
763.000000	117.851400
762.000000	117.729700
761.000000	117.699100
760.000000	117.729400
759.000000	117.559700
758.000000	117.507100
757.000000	117.506100
756.000000	117.401900
755.000000	117.251600
754.000000	117.424800
753.000000	117.518100
752.000000	117.445800
751.000000	117.343000
750.000000	117.215000
749.000000	117.169100
748.000000	117.186600
747.000000	117.090500
746.000000	117.043100
745.000000	116.974000
744.000000	117.003500
743.000000	116.937600
742.000000	116.953800
741.000000	116.933500
740.000000	116.935800
739.000000	116.910200
738.000000	116.785900
737.000000	116.659100
736.000000	116.694300
735.000000	116.635800
734.000000	116.603400
733.000000	116.606200
732.000000	116.749400
731.000000	116.634600
730.000000	116.536100
729.000000	116.428100
728.000000	116.361300
727.000000	116.336300
726.000000	116.331700
725.000000	116.405000
724.000000	116.340200
723.000000	116.252300
722.000000	116.157800
721.000000	116.162200
720.000000	116.119100
719.000000	116.072200
718.000000	116.151000
717.000000	115.975400
716.000000	115.900700
715.000000	115.919800
714.000000	115.928300
713.000000	115.939700
712.000000	115.921700
711.000000	115.773100
710.000000	115.717500
709.000000	115.749400
708.000000	115.747400
707.000000	115.775400
706.000000	115.683900
705.000000	115.653200
704.000000	115.568500
703.000000	115.520300
702.000000	115.613200
701.000000	115.521800
700.000000	115.541600
699.000000	115.543000
698.000000	115.453300
697.000000	115.434300
696.000000	115.472400
695.000000	115.376100
694.000000	115.314300
693.000000	115.439500
692.000000	115.320600
691.000000	115.211700
690.000000	115.433200
689.000000	115.447500
688.000000	115.423500
687.000000	115.352000
686.000000	115.429400
685.000000	115.424000
684.000000	115.266700
683.000000	115.271900
682.000000	115.169700
681.000000	115.270300
680.000000	115.161100
679.000000	115.233900
678.000000	115.120900
677.000000	115.164300
676.000000	115.028200
675.000000	115.094800
674.000000	115.004100
673.000000	115.035200
672.000000	115.035700
671.000000	114.993500
670.000000	115.006600
669.000000	114.915900
668.000000	114.921600
667.000000	114.988600
666.000000	114.748800
665.000000	114.896200
664.000000	114.905100
663.000000	115.003500
662.000000	114.893100
661.000000	114.869400
660.000000	114.865800
659.000000	114.721600
658.000000	114.775400
657.000000	114.669200
656.000000	114.734900
655.000000	114.786900
654.000000	114.760100
653.000000	114.711900
652.000000	114.635300
651.000000	114.640400
650.000000	114.672400
649.000000	114.624500
648.000000	114.527400
647.000000	114.536600
646.000000	114.524700
645.000000	114.619500
644.000000	114.581100
643.000000	114.500400
642.000000	114.471600
641.000000	114.458100
640.000000	114.545000
639.000000	114.469700
638.000000	114.462300
637.000000	114.497200
636.000000	114.398900
635.000000	114.351900
634.000000	114.388800
633.000000	114.445600
632.000000	114.504600
631.000000	114.352700
630.000000	114.364000
629.000000	114.423400
628.000000	114.330300
627.000000	114.293000
626.000000	114.417200
625.000000	114.330500
624.000000	114.321200
623.000000	114.280500
622.000000	114.254300
621.000000	114.188800
620.000000	114.157600
619.000000	114.201700
618.000000	114.193600
617.000000	114.267100
616.000000	114.186400
615.000000	114.132700
614.000000	114.195200
613.000000	114.215100
612.000000	114.169200
611.000000	114.203400
610.000000	114.154000
609.000000	114.141200
608.000000	114.129800
607.000000	114.213300
606.000000	114.081800
605.000000	114.039300
604.000000	114.070400
603.000000	114.125900
602.000000	114.183400
601.000000	114.126000
600.000000	114.055200
599.000000	114.079600
598.000000	114.059800
597.000000	114.087700
596.000000	114.046200
595.000000	114.038100
594.000000	114.086800
593.000000	114.067900
592.000000	114.044400
591.000000	114.054100
590.000000	113.979200
589.000000	114.034500
588.000000	114.067800
587.000000	114.030500
586.000000	114.034400
585.000000	114.020800
584.000000	114.002700
583.000000	114.099500
582.000000	114.055300
581.000000	114.100400
580.000000	114.043200
579.000000	114.024100
578.000000	114.064100
577.000000	114.036100
576.000000	113.992400
575.000000	114.002400
574.000000	114.024800
573.000000	114.050400
572.000000	114.015500
571.000000	113.991800
570.000000	114.007600
569.000000	114.028000
568.000000	114.019600
567.000000	113.982400
566.000000	114.005000
565.000000	114.009000
564.000000	113.985800
563.000000	114.002900
562.000000	114.143100
561.000000	114.208300
560.000000	114.190000
559.000000	114.201600
558.000000	114.279800
557.000000	114.272900
556.000000	114.244600
555.000000	114.242500
554.000000	114.212300
553.000000	114.255900
552.000000	114.302300
551.000000	114.367200
550.000000	114.360400
549.000000	114.290000
548.000000	114.297500
547.000000	114.362800
546.000000	114.374400
545.000000	114.380000
544.000000	114.373500
543.000000	114.378000
542.000000	114.417900
541.000000	114.436900
540.000000	114.422800
539.000000	114.457300
538.000000	114.487900
537.000000	114.482600
536.000000	114.529600
535.000000	114.579200
534.000000	114.578000
533.000000	114.594400
532.000000	114.616900
531.000000	114.592100
530.000000	114.640700
529.000000	114.671700
528.000000	114.691300
527.000000	114.737200
526.000000	114.745700
525.000000	114.765500
524.000000	114.812900
523.000000	114.828300
522.000000	114.805800
521.000000	114.798500
520.000000	114.787700
519.000000	114.778300
518.000000	114.772800
517.000000	114.728900
516.000000	114.653200
515.000000	114.544600
514.000000	114.449300
513.000000	114.363700
512.000000	114.245800
511.000000	114.067300
510.000000	113.905400
509.000000	113.741600
508.000000	113.556100
507.000000	113.359000
506.000000	113.133600
505.000000	112.968500
504.000000	112.822700
503.000000	112.672200
502.000000	112.568500
501.000000	112.476300
500.000000	112.421200
499.000000	112.444700
498.000000	112.487100
497.000000	112.485400
496.000000	112.499600
495.000000	112.559300
494.000000	112.633300
493.000000	112.697700
492.000000	112.746700
491.000000	112.876300
490.000000	112.996300
489.000000	113.033500
488.000000	113.106200
487.000000	113.214500
486.000000	113.276800
485.000000	113.408700
484.000000	113.523400
483.000000	113.751100
482.000000	114.035600
481.000000	114.244300
480.000000	114.449500
479.000000	114.464300
478.000000	114.297600
477.000000	114.207700
476.000000	114.182500
475.000000	114.191700
474.000000	114.201500
473.000000	114.139400
472.000000	114.108000
471.000000	114.041300
470.000000	113.968600
469.000000	113.903100
468.000000	113.793400
467.000000	113.686100
466.000000	113.580700
465.000000	113.435500
464.000000	113.261100
463.000000	113.153700
462.000000	113.023900
461.000000	112.909100
460.000000	112.783100
459.000000	112.663800
458.000000	112.620100
457.000000	112.550300
456.000000	112.508100
455.000000	112.529900
454.000000	112.500900
453.000000	112.595800
452.000000	112.564300
451.000000	112.552000
450.000000	112.507600
449.000000	112.501100
448.000000	112.522900
447.000000	112.635200
446.000000	112.564900
445.000000	112.605400
444.000000	112.874300
443.000000	112.980600
442.000000	112.992000
441.000000	112.873200
440.000000	112.905700
439.000000	112.831100
438.000000	112.837800
437.000000	112.786100
436.000000	112.696500
435.000000	112.674900
434.000000	112.659200
433.000000	112.662400
432.000000	112.702300
431.000000	112.674400
430.000000	112.550200
429.000000	112.542800
428.000000	112.473100
427.000000	112.457400
426.000000	112.507600
425.000000	112.292300
424.000000	112.250300
423.000000	112.288300
422.000000	112.246000
421.000000	112.215700
420.000000	112.104900
419.000000	111.988700
418.000000	111.937900
417.000000	111.813700
416.000000	111.639600
415.000000	111.491500
414.000000	111.433300
413.000000	111.392900
412.000000	111.070600
411.000000	110.917800
410.000000	110.721900
409.000000	110.480100
408.000000	110.196800
407.000000	109.925900
406.000000	109.732000
405.000000	109.383000
404.000000	109.138100
403.000000	108.882000
402.000000	108.630700
401.000000	108.401000
400.000000	107.965500
399.000000	107.756100
398.000000	107.496300
397.000000	107.304400
396.000000	107.096300
395.000000	106.967100
394.000000	106.727300
393.000000	106.523700
392.000000	106.329500
391.000000	106.266600
390.000000	106.030300
389.000000	105.948600
388.000000	105.772600
387.000000	105.637700
386.000000	105.644000
385.000000	105.553200
384.000000	105.387200
383.000000	105.251400
382.000000	105.202000
381.000000	105.117200
380.000000	105.103300
379.000000	105.770700
378.000000	106.935900
377.000000	106.629600
376.000000	106.432200
375.000000	106.110000
374.000000	105.741800
373.000000	105.627200
372.000000	105.433900
371.000000	105.352500
370.000000	105.160600
369.000000	105.113200
368.000000	104.894700
367.000000	104.692200
366.000000	104.665900
365.000000	104.418400
364.000000	104.462000
363.000000	104.418600
362.000000	104.241800
361.000000	104.312000
360.000000	104.161100
359.000000	104.112500
358.000000	103.851000
357.000000	103.876400
356.000000	103.833900
355.000000	103.793400
354.000000	103.765200
353.000000	103.571700
352.000000	103.524400
351.000000	103.450100
350.000000	103.439900
349.000000	103.320900
348.000000	103.403500
347.000000	103.242300
346.000000	103.078400
345.000000	103.192900
344.000000	103.146900
343.000000	103.148700
342.000000	102.952900
341.000000	103.099200
340.000000	103.015300
339.000000	103.007600
338.000000	102.957500
337.000000	102.843900
336.000000	102.838800
335.000000	102.671500
334.000000	102.585900
333.000000	102.486600
332.000000	102.474100
331.000000	102.363100
330.000000	102.320100
329.000000	102.332700
328.000000	102.152600
327.000000	102.117300
326.000000	102.053900
325.000000	101.937200
