PE UV       SUBTECH     SPECTRUM    ASCII       PEDS        4.00        
   -1
J23.Sample.Raw.asc
18/05/03
11:53:03.00
18/05/03
11:53:03.00
Administrator
longitudinal
325.000000
1
Lambda 850
850L1710193
PerkinElmer UV WinLab 6.4.0.973 / 2.02.06 Lambda 800 UV/VIS, Jan 28 2016 16:58:34

0
0
2
0
0
UV/VIS
1
1
1
RBeamAtt,SBeamAtt,60mm sphere
0
0
0
0
Fix
 
0
0.16
0
0
0
 
 
 
0
 
0
319.2
0
Front
100
 
S:100 R:100
 
0
0
0
 
0
 
 
 
0
 
 
0
0
0
0
0
 
 
 
 
0
0


0
0
#HDR
-1
-1
#GR
nm
%T
1.0
0.0
900.000000
-1.000000
576
8
73.980677
0.015946
#DATA
900.000000	70.439346
899.000000	70.119530
898.000000	71.803572
897.000000	64.924184
896.000000	73.980677
895.000000	67.065822
894.000000	70.273668
893.000000	72.542954
892.000000	68.296518
891.000000	73.802378
890.000000	68.147892
889.000000	73.976591
888.000000	73.013736
887.000000	70.549331
886.000000	71.515111
885.000000	71.029236
884.000000	71.645985
883.000000	70.386560
882.000000	72.129784
881.000000	69.638255
880.000000	70.552818
879.000000	70.385655
878.000000	69.139567
877.000000	70.034316
876.000000	70.839478
875.000000	69.604070
874.000000	71.876243
873.000000	68.990665
872.000000	70.354444
871.000000	70.822255
870.000000	71.296529
869.000000	70.492300
868.000000	70.413999
867.000000	70.179458
866.000000	71.312878
865.000000	69.655610
864.000000	70.708094
863.000000	70.635475
862.000000	70.174543
861.000000	69.839764
860.000000	69.583029
859.000000	70.640873
858.000000	69.811144
857.000000	70.128783
856.000000	70.091049
855.000000	69.981177
854.000000	69.523474
853.000000	69.884487
852.000000	69.841065
851.000000	69.469662
850.000000	69.039288
849.000000	69.066905
848.000000	69.449372
847.000000	69.294680
846.000000	69.003819
845.000000	69.071204
844.000000	68.716102
843.000000	69.114090
842.000000	69.123611
841.000000	68.799128
840.000000	68.520000
839.000000	68.541829
838.000000	68.433163
837.000000	68.618343
836.000000	68.275417
835.000000	68.012011
834.000000	67.815059
833.000000	67.990855
832.000000	67.821513
831.000000	68.040794
830.000000	67.878690
829.000000	67.797642
828.000000	67.828762
827.000000	67.775920
826.000000	67.664315
825.000000	67.401073
824.000000	67.220651
823.000000	67.108922
822.000000	67.022657
821.000000	67.305956
820.000000	67.245308
819.000000	67.011176
818.000000	66.859854
817.000000	66.855117
816.000000	66.736038
815.000000	66.723095
814.000000	66.703370
813.000000	66.618062
812.000000	66.613152
811.000000	66.252058
810.000000	66.193288
809.000000	66.513919
808.000000	66.480614
807.000000	66.299889
806.000000	66.189334
805.000000	66.232617
804.000000	66.231026
803.000000	66.065905
802.000000	65.852819
801.000000	65.787450
800.000000	65.832418
799.000000	65.732487
798.000000	65.803027
797.000000	65.632072
796.000000	65.508883
795.000000	65.497424
794.000000	65.450113
793.000000	65.306134
792.000000	65.162970
791.000000	65.184282
790.000000	65.228263
789.000000	65.211027
788.000000	65.114777
787.000000	64.983936
786.000000	64.962756
785.000000	64.996021
784.000000	64.877098
783.000000	64.819642
782.000000	64.701879
781.000000	64.608719
780.000000	64.615674
779.000000	64.555978
778.000000	64.511500
777.000000	64.461297
776.000000	64.351606
775.000000	64.264117
774.000000	64.173678
773.000000	64.086260
772.000000	64.030659
771.000000	63.989933
770.000000	63.946301
769.000000	63.846478
768.000000	63.726231
767.000000	63.695218
766.000000	63.676698
765.000000	63.649128
764.000000	63.637120
763.000000	63.394071
762.000000	63.367018
761.000000	63.366330
760.000000	63.256162
759.000000	63.264112
758.000000	63.200692
757.000000	63.103873
756.000000	63.085265
755.000000	63.055515
754.000000	62.885608
753.000000	62.728720
752.000000	62.669333
751.000000	62.676853
750.000000	62.554622
749.000000	62.455972
748.000000	62.455093
747.000000	62.476033
746.000000	62.401457
745.000000	62.336673
744.000000	62.248651
743.000000	62.237125
742.000000	62.154543
741.000000	62.050140
740.000000	61.954850
739.000000	61.867998
738.000000	61.905504
737.000000	61.903186
736.000000	61.834897
735.000000	61.760712
734.000000	61.774614
733.000000	61.689773
732.000000	61.554406
731.000000	61.543487
730.000000	61.525484
729.000000	61.466261
728.000000	61.455570
727.000000	61.444192
726.000000	61.364013
725.000000	61.212663
724.000000	61.237646
723.000000	61.313454
722.000000	61.271994
721.000000	61.046795
720.000000	61.055675
719.000000	61.074314
718.000000	60.952725
717.000000	60.969826
716.000000	61.024653
715.000000	60.897879
714.000000	60.896951
713.000000	60.851977
712.000000	60.784478
711.000000	60.778713
710.000000	60.771016
709.000000	60.704418
708.000000	60.701234
707.000000	60.581695
706.000000	60.572560
705.000000	60.555523
704.000000	60.532585
703.000000	60.518281
702.000000	60.389125
701.000000	60.390074
700.000000	60.294907
699.000000	60.195944
698.000000	60.227555
697.000000	60.137671
696.000000	60.126489
695.000000	60.135938
694.000000	60.036613
693.000000	59.876732
692.000000	59.910198
691.000000	59.895566
690.000000	59.694611
689.000000	59.643907
688.000000	59.607879
687.000000	59.564724
686.000000	59.447766
685.000000	59.354727
684.000000	59.352614
683.000000	59.256245
682.000000	59.291289
681.000000	59.151577
680.000000	59.060134
679.000000	58.955828
678.000000	58.962447
677.000000	58.851919
676.000000	58.774196
675.000000	58.650260
674.000000	58.661387
673.000000	58.520175
672.000000	58.366229
671.000000	58.290251
670.000000	58.154923
669.000000	58.081693
668.000000	58.010331
667.000000	57.796512
666.000000	57.811585
665.000000	57.639243
664.000000	57.506325
663.000000	57.407557
662.000000	57.338517
661.000000	57.173016
660.000000	57.044743
659.000000	56.976977
658.000000	56.809909
657.000000	56.784559
656.000000	56.526218
655.000000	56.431004
654.000000	56.264764
653.000000	56.078053
652.000000	56.078887
651.000000	55.877335
650.000000	55.669455
649.000000	55.604692
648.000000	55.495715
647.000000	55.323364
646.000000	55.197438
645.000000	54.970664
644.000000	54.759293
643.000000	54.617189
642.000000	54.546979
641.000000	54.365921
640.000000	54.158977
639.000000	54.027834
638.000000	53.823923
637.000000	53.676946
636.000000	53.496319
635.000000	53.407246
634.000000	53.195155
633.000000	53.010775
632.000000	52.779976
631.000000	52.680435
630.000000	52.462576
629.000000	52.293062
628.000000	52.155728
627.000000	51.967925
626.000000	51.714253
625.000000	51.567255
624.000000	51.390818
623.000000	51.215124
622.000000	51.058035
621.000000	50.930389
620.000000	50.715414
619.000000	50.498285
618.000000	50.307986
617.000000	50.052465
616.000000	49.955599
615.000000	49.737805
614.000000	49.551557
613.000000	49.361599
612.000000	49.201098
611.000000	48.981992
610.000000	48.841390
609.000000	48.629767
608.000000	48.444666
607.000000	48.217589
606.000000	48.084620
605.000000	47.899803
604.000000	47.692390
603.000000	47.510863
602.000000	47.279552
601.000000	47.117572
600.000000	46.989177
599.000000	46.791100
598.000000	46.594330
597.000000	46.402198
596.000000	46.269670
595.000000	46.058466
594.000000	45.835364
593.000000	45.676391
592.000000	45.479041
591.000000	45.282283
590.000000	45.124725
589.000000	44.963673
588.000000	44.811682
587.000000	44.617449
586.000000	44.421069
585.000000	44.255434
584.000000	44.084482
583.000000	43.889149
582.000000	43.729314
581.000000	43.538673
580.000000	43.413987
579.000000	43.226739
578.000000	43.040273
577.000000	42.910622
576.000000	42.753991
575.000000	42.580683
574.000000	42.390603
573.000000	42.220808
572.000000	42.077525
571.000000	41.920384
570.000000	41.760637
569.000000	41.587417
568.000000	41.450154
567.000000	41.320063
566.000000	41.149862
565.000000	40.961678
564.000000	40.843245
563.000000	40.689404
562.000000	40.548224
561.000000	40.434802
560.000000	40.292583
559.000000	40.142432
558.000000	39.980031
557.000000	39.863257
556.000000	39.734832
555.000000	39.595247
554.000000	39.484276
553.000000	39.343001
552.000000	39.196412
551.000000	39.032170
550.000000	38.908049
549.000000	38.823694
548.000000	38.710296
547.000000	38.565425
546.000000	38.458694
545.000000	38.341493
544.000000	38.243037
543.000000	38.123678
542.000000	37.994405
541.000000	37.890663
540.000000	37.787923
539.000000	37.667846
538.000000	37.562659
537.000000	37.475215
536.000000	37.369553
535.000000	37.264442
534.000000	37.179476
533.000000	37.073627
532.000000	36.972384
531.000000	36.898355
530.000000	36.797315
529.000000	36.693273
528.000000	36.605479
527.000000	36.513267
526.000000	36.433609
525.000000	36.364587
524.000000	36.282508
523.000000	36.200919
522.000000	36.122391
521.000000	36.042631
520.000000	35.962041
519.000000	35.873244
518.000000	35.788880
517.000000	35.722037
516.000000	35.662241
515.000000	35.601416
514.000000	35.518697
513.000000	35.427588
512.000000	35.363488
511.000000	35.306087
510.000000	35.241086
509.000000	35.177455
508.000000	35.109607
507.000000	35.049356
506.000000	35.000919
505.000000	34.940537
504.000000	34.880835
503.000000	34.836011
502.000000	34.789484
501.000000	34.753010
500.000000	34.702974
499.000000	34.639516
498.000000	34.588233
497.000000	34.548306
496.000000	34.505278
495.000000	34.469831
494.000000	34.445941
493.000000	34.416230
492.000000	34.386372
491.000000	34.333514
490.000000	34.251475
489.000000	34.229852
488.000000	34.208646
487.000000	34.145273
486.000000	34.117401
485.000000	34.083893
484.000000	34.058177
483.000000	33.997122
482.000000	33.950187
481.000000	33.919329
480.000000	33.875902
479.000000	33.840158
478.000000	33.823195
477.000000	33.786338
476.000000	33.720579
475.000000	33.701223
474.000000	33.667334
473.000000	33.614948
472.000000	33.593000
471.000000	33.553283
470.000000	33.525901
469.000000	33.494260
468.000000	33.443592
467.000000	33.414727
466.000000	33.380847
465.000000	33.347850
464.000000	33.318589
463.000000	33.263694
462.000000	33.238368
461.000000	33.205915
460.000000	33.176247
459.000000	33.129364
458.000000	33.105902
457.000000	33.064239
456.000000	33.033355
455.000000	32.975414
454.000000	32.945692
453.000000	32.864814
452.000000	32.824350
451.000000	32.779338
450.000000	32.757431
449.000000	32.716836
448.000000	32.632291
447.000000	32.529174
446.000000	32.503205
445.000000	32.480236
444.000000	32.370168
443.000000	32.316522
442.000000	32.273170
441.000000	32.214910
440.000000	32.137616
439.000000	32.070856
438.000000	31.979443
437.000000	31.916167
436.000000	31.866828
435.000000	31.797943
434.000000	31.678460
433.000000	31.636021
432.000000	31.528105
431.000000	31.428790
430.000000	31.386084
429.000000	31.293872
428.000000	31.206751
427.000000	31.090529
426.000000	30.984840
425.000000	30.935781
424.000000	30.846688
423.000000	30.730361
422.000000	30.645725
421.000000	30.513912
420.000000	30.430606
419.000000	30.358599
418.000000	30.185040
417.000000	30.080482
416.000000	29.992583
415.000000	29.877076
414.000000	29.729892
413.000000	29.595603
412.000000	29.497635
411.000000	29.404117
410.000000	29.254917
409.000000	29.104427
408.000000	28.975796
407.000000	28.862625
406.000000	28.722888
405.000000	28.597131
404.000000	28.413725
403.000000	28.304219
402.000000	28.129157
401.000000	27.965240
400.000000	27.828519
399.000000	27.670174
398.000000	27.499923
397.000000	27.427021
396.000000	27.215599
395.000000	27.001760
394.000000	26.863980
393.000000	26.712459
392.000000	26.545785
391.000000	26.352965
390.000000	26.218638
389.000000	25.999494
388.000000	25.882979
387.000000	25.663471
386.000000	25.472341
385.000000	25.306102
384.000000	25.159507
383.000000	25.009169
382.000000	24.819205
381.000000	24.643255
380.000000	24.425399
379.000000	24.232987
378.000000	23.970809
377.000000	23.770323
376.000000	23.572753
375.000000	23.386768
374.000000	23.229508
373.000000	22.987261
372.000000	22.771993
371.000000	22.570513
370.000000	22.228002
369.000000	21.873846
368.000000	21.549135
367.000000	21.059640
366.000000	20.576902
365.000000	20.087360
364.000000	19.323007
363.000000	18.558284
362.000000	17.782022
361.000000	16.831141
360.000000	15.779307
359.000000	14.699868
358.000000	13.438195
357.000000	12.116900
356.000000	10.730985
355.000000	9.273037
354.000000	7.820252
353.000000	6.380411
352.000000	5.008674
351.000000	3.796806
350.000000	2.746716
349.000000	1.882097
348.000000	1.207986
347.000000	0.730321
346.000000	0.402703
345.000000	0.207572
344.000000	0.091811
343.000000	0.048861
342.000000	0.031762
341.000000	0.023861
340.000000	0.023200
339.000000	0.020193
338.000000	0.018066
337.000000	0.015946
336.000000	0.019448
335.000000	0.020648
334.000000	0.026222
333.000000	0.028296
332.000000	0.026836
331.000000	0.027256
330.000000	0.025020
329.000000	0.028046
328.000000	0.035633
327.000000	0.040052
326.000000	0.036353
325.000000	0.037376
