PE UV       SUBTECH     SPECTRUM    ASCII       PEDS        4.00        
   -1
J31.Sample.Raw.asc
18/05/03
11:57:25.00
18/05/03
11:57:25.00
Administrator
longitudinal
325.000000
1
Lambda 850
850L1710193
PerkinElmer UV WinLab 6.4.0.973 / 2.02.06 Lambda 800 UV/VIS, Jan 28 2016 16:58:34

0
0
2
0
0
UV/VIS
1
1
1
RBeamAtt,SBeamAtt,60mm sphere
0
0
0
0
Fix
 
0
0.16
0
0
0
 
 
 
0
 
0
319.2
0
Front
100
 
S:100 R:100
 
0
0
0
 
0
 
 
 
0
 
 
0
0
0
0
0
 
 
 
 
0
0


0
0
#HDR
-1
-1
#GR
nm
%T
1.0
0.0
900.000000
-1.000000
576
8
77.724732
0.013695
#DATA
900.000000	72.203807
899.000000	75.257690
898.000000	71.742688
897.000000	68.383750
896.000000	77.724732
895.000000	70.563919
894.000000	72.663454
893.000000	74.182545
892.000000	72.829229
891.000000	74.848580
890.000000	72.004221
889.000000	75.358677
888.000000	72.400837
887.000000	71.488252
886.000000	74.671399
885.000000	73.883271
884.000000	74.829232
883.000000	73.416444
882.000000	75.948045
881.000000	72.131773
880.000000	74.165902
879.000000	72.478953
878.000000	71.565585
877.000000	74.384503
876.000000	73.863817
875.000000	73.444103
874.000000	73.156344
873.000000	72.462517
872.000000	72.903949
871.000000	73.710219
870.000000	72.920349
869.000000	72.732866
868.000000	74.158704
867.000000	74.259948
866.000000	74.015904
865.000000	73.416117
864.000000	74.236947
863.000000	73.551273
862.000000	73.778816
861.000000	73.026875
860.000000	72.927557
859.000000	73.625765
858.000000	73.209916
857.000000	73.488405
856.000000	73.611338
855.000000	73.368406
854.000000	73.244319
853.000000	73.597777
852.000000	73.386010
851.000000	72.926555
850.000000	72.616023
849.000000	72.810180
848.000000	72.822691
847.000000	72.871539
846.000000	72.846943
845.000000	72.941936
844.000000	72.693512
843.000000	73.187885
842.000000	72.835188
841.000000	72.814515
840.000000	72.691811
839.000000	72.457240
838.000000	72.898052
837.000000	73.014084
836.000000	72.603446
835.000000	72.345137
834.000000	72.225524
833.000000	72.373249
832.000000	72.308956
831.000000	72.387374
830.000000	72.468060
829.000000	72.453184
828.000000	72.163601
827.000000	72.318800
826.000000	72.441847
825.000000	72.409337
824.000000	72.011013
823.000000	72.080422
822.000000	72.000308
821.000000	72.089860
820.000000	72.062083
819.000000	72.048069
818.000000	71.995106
817.000000	72.004193
816.000000	71.926652
815.000000	71.808569
814.000000	71.670082
813.000000	71.840439
812.000000	71.779305
811.000000	71.452403
810.000000	71.742612
809.000000	71.916084
808.000000	71.893001
807.000000	71.826787
806.000000	71.871701
805.000000	71.861758
804.000000	71.832880
803.000000	71.761359
802.000000	71.633137
801.000000	71.458881
800.000000	71.481548
799.000000	71.651558
798.000000	71.777225
797.000000	71.723466
796.000000	71.618262
795.000000	71.674065
794.000000	71.618152
793.000000	71.618733
792.000000	71.632912
791.000000	71.631416
790.000000	71.629716
789.000000	71.732786
788.000000	71.718078
787.000000	71.607850
786.000000	71.575982
785.000000	71.662834
784.000000	71.648843
783.000000	71.515265
782.000000	71.399112
781.000000	71.583646
780.000000	71.607129
779.000000	71.499447
778.000000	71.532441
777.000000	71.514564
776.000000	71.406821
775.000000	71.353290
774.000000	71.336609
773.000000	71.322184
772.000000	71.476208
771.000000	71.427918
770.000000	71.266219
769.000000	71.334724
768.000000	71.325141
767.000000	71.277810
766.000000	71.326792
765.000000	71.345350
764.000000	71.270072
763.000000	71.169456
762.000000	71.235805
761.000000	71.149652
760.000000	71.160135
759.000000	71.359063
758.000000	71.304798
757.000000	71.141839
756.000000	71.176872
755.000000	71.327044
754.000000	71.187603
753.000000	71.087688
752.000000	71.031659
751.000000	70.988640
750.000000	71.053790
749.000000	71.098182
748.000000	70.951542
747.000000	70.993462
746.000000	70.987781
745.000000	70.995435
744.000000	70.970270
743.000000	70.971185
742.000000	70.933138
741.000000	70.921421
740.000000	70.953292
739.000000	70.922212
738.000000	70.887838
737.000000	70.890312
736.000000	70.915546
735.000000	70.898301
734.000000	70.793304
733.000000	70.752756
732.000000	70.620149
731.000000	70.657678
730.000000	70.763652
729.000000	70.715575
728.000000	70.739155
727.000000	70.754700
726.000000	70.736265
725.000000	70.612688
724.000000	70.661560
723.000000	70.710687
722.000000	70.721122
721.000000	70.696233
720.000000	70.762260
719.000000	70.698238
718.000000	70.561424
717.000000	70.585314
716.000000	70.601558
715.000000	70.610284
714.000000	70.618822
713.000000	70.503029
712.000000	70.495429
711.000000	70.558705
710.000000	70.545164
709.000000	70.486499
708.000000	70.445038
707.000000	70.453741
706.000000	70.447400
705.000000	70.464458
704.000000	70.431476
703.000000	70.435672
702.000000	70.353299
701.000000	70.358755
700.000000	70.367642
699.000000	70.263538
698.000000	70.301672
697.000000	70.314456
696.000000	70.225526
695.000000	70.216969
694.000000	70.310794
693.000000	70.170609
692.000000	70.200120
691.000000	70.221167
690.000000	70.031239
689.000000	70.037636
688.000000	70.044488
687.000000	69.976420
686.000000	69.988149
685.000000	69.926185
684.000000	69.995584
683.000000	69.953215
682.000000	69.921169
681.000000	69.876976
680.000000	69.893653
679.000000	69.862775
678.000000	69.837883
677.000000	69.821464
676.000000	69.849046
675.000000	69.783083
674.000000	69.826902
673.000000	69.769253
672.000000	69.679760
671.000000	69.707766
670.000000	69.638090
669.000000	69.666165
668.000000	69.687248
667.000000	69.544633
666.000000	69.663474
665.000000	69.546948
664.000000	69.499613
663.000000	69.407888
662.000000	69.401905
661.000000	69.416137
660.000000	69.348753
659.000000	69.355727
658.000000	69.324001
657.000000	69.382450
656.000000	69.320494
655.000000	69.233684
654.000000	69.241313
653.000000	69.165187
652.000000	69.222744
651.000000	69.232400
650.000000	69.128142
649.000000	69.070661
648.000000	69.073864
647.000000	69.144623
646.000000	69.048336
645.000000	68.999429
644.000000	68.897401
643.000000	68.936964
642.000000	68.954920
641.000000	68.845543
640.000000	68.856519
639.000000	68.804758
638.000000	68.792345
637.000000	68.757664
636.000000	68.744892
635.000000	68.624745
634.000000	68.616683
633.000000	68.479697
632.000000	68.482140
631.000000	68.546786
630.000000	68.439369
629.000000	68.423592
628.000000	68.391844
627.000000	68.324219
626.000000	68.210811
625.000000	68.240496
624.000000	68.246572
623.000000	68.186699
622.000000	68.147807
621.000000	68.173849
620.000000	68.082984
619.000000	68.076220
618.000000	68.052500
617.000000	67.946242
616.000000	67.921311
615.000000	67.918046
614.000000	67.848561
613.000000	67.841468
612.000000	67.859458
611.000000	67.752624
610.000000	67.744888
609.000000	67.649893
608.000000	67.607847
607.000000	67.549051
606.000000	67.569060
605.000000	67.580738
604.000000	67.477891
603.000000	67.436927
602.000000	67.352785
601.000000	67.340659
600.000000	67.323980
599.000000	67.276709
598.000000	67.258491
597.000000	67.216448
596.000000	67.147700
595.000000	67.119410
594.000000	67.048510
593.000000	66.993256
592.000000	66.963569
591.000000	66.939110
590.000000	66.963183
589.000000	66.886249
588.000000	66.816402
587.000000	66.777046
586.000000	66.704696
585.000000	66.679325
584.000000	66.649211
583.000000	66.569266
582.000000	66.559906
581.000000	66.500293
580.000000	66.495328
579.000000	66.465510
578.000000	66.383989
577.000000	66.371351
576.000000	66.365740
575.000000	66.319832
574.000000	66.225944
573.000000	66.192052
572.000000	66.195035
571.000000	66.138968
570.000000	66.064280
569.000000	65.995106
568.000000	65.970149
567.000000	65.943075
566.000000	65.881935
565.000000	65.797525
564.000000	65.796880
563.000000	65.736310
562.000000	65.683252
561.000000	65.688921
560.000000	65.660478
559.000000	65.652233
558.000000	65.520503
557.000000	65.482980
556.000000	65.474604
555.000000	65.438957
554.000000	65.428592
553.000000	65.372554
552.000000	65.305860
551.000000	65.230853
550.000000	65.186725
549.000000	65.188905
548.000000	65.129246
547.000000	65.062066
546.000000	65.034396
545.000000	64.999213
544.000000	64.964087
543.000000	64.952526
542.000000	64.909686
541.000000	64.833196
540.000000	64.804654
539.000000	64.798925
538.000000	64.753743
537.000000	64.708174
536.000000	64.667562
535.000000	64.614433
534.000000	64.618426
533.000000	64.562317
532.000000	64.506369
531.000000	64.499560
530.000000	64.445088
529.000000	64.427056
528.000000	64.420318
527.000000	64.346524
526.000000	64.298183
525.000000	64.256506
524.000000	64.213081
523.000000	64.187226
522.000000	64.155731
521.000000	64.109636
520.000000	64.068798
519.000000	64.039457
518.000000	63.994866
517.000000	63.960432
516.000000	63.933933
515.000000	63.907072
514.000000	63.854563
513.000000	63.808009
512.000000	63.763569
511.000000	63.722031
510.000000	63.692327
509.000000	63.652964
508.000000	63.612523
507.000000	63.568662
506.000000	63.517912
505.000000	63.477695
504.000000	63.442463
503.000000	63.395318
502.000000	63.347029
501.000000	63.312982
500.000000	63.270362
499.000000	63.195331
498.000000	63.141640
497.000000	63.108901
496.000000	63.060846
495.000000	62.994795
494.000000	62.925529
493.000000	62.881141
492.000000	62.856651
491.000000	62.773673
490.000000	62.687451
489.000000	62.670801
488.000000	62.648467
487.000000	62.590393
486.000000	62.545640
485.000000	62.489827
484.000000	62.464831
483.000000	62.429990
482.000000	62.360877
481.000000	62.348231
480.000000	62.283453
479.000000	62.226913
478.000000	62.201569
477.000000	62.148086
476.000000	62.124669
475.000000	62.065369
474.000000	62.008555
473.000000	61.962477
472.000000	61.891278
471.000000	61.849961
470.000000	61.821589
469.000000	61.758108
468.000000	61.715354
467.000000	61.691095
466.000000	61.629925
465.000000	61.574904
464.000000	61.525096
463.000000	61.445361
462.000000	61.376488
461.000000	61.330486
460.000000	61.280635
459.000000	61.215759
458.000000	61.151251
457.000000	61.105568
456.000000	61.036316
455.000000	60.948068
454.000000	60.884491
453.000000	60.755286
452.000000	60.727780
451.000000	60.655164
450.000000	60.616705
449.000000	60.527942
448.000000	60.467514
447.000000	60.318266
446.000000	60.233785
445.000000	60.191696
444.000000	60.072045
443.000000	60.022252
442.000000	59.953537
441.000000	59.865938
440.000000	59.764565
439.000000	59.696750
438.000000	59.590846
437.000000	59.495629
436.000000	59.450293
435.000000	59.391843
434.000000	59.266975
433.000000	59.139873
432.000000	59.038014
431.000000	58.915246
430.000000	58.874085
429.000000	58.778527
428.000000	58.680965
427.000000	58.594454
426.000000	58.432319
425.000000	58.443099
424.000000	58.334187
423.000000	58.193774
422.000000	58.047948
421.000000	57.984132
420.000000	57.842075
419.000000	57.735468
418.000000	57.631776
417.000000	57.521663
416.000000	57.451209
415.000000	57.303382
414.000000	57.122243
413.000000	56.945730
412.000000	56.913171
411.000000	56.663313
410.000000	56.519261
409.000000	56.360738
408.000000	56.279039
407.000000	56.100792
406.000000	55.962436
405.000000	55.836922
404.000000	55.579857
403.000000	55.434783
402.000000	55.246261
401.000000	55.077167
400.000000	55.014426
399.000000	54.868819
398.000000	54.665788
397.000000	54.497113
396.000000	54.239782
395.000000	53.963041
394.000000	53.817252
393.000000	53.636515
392.000000	53.396470
391.000000	53.092035
390.000000	53.006546
389.000000	52.662140
388.000000	52.512844
387.000000	52.268840
386.000000	51.932907
385.000000	51.741491
384.000000	51.501131
383.000000	51.304401
382.000000	51.009582
381.000000	50.795588
380.000000	50.413355
379.000000	50.030585
378.000000	49.497783
377.000000	49.219541
376.000000	48.912171
375.000000	48.645085
374.000000	48.214046
373.000000	47.715267
372.000000	47.235756
371.000000	46.645120
370.000000	46.109570
369.000000	45.423315
368.000000	44.630377
367.000000	43.809281
366.000000	42.748020
365.000000	41.712763
364.000000	40.416324
363.000000	39.066220
362.000000	37.514893
361.000000	35.753988
360.000000	33.899220
359.000000	31.794837
358.000000	29.621958
357.000000	27.148515
356.000000	24.551327
355.000000	21.791655
354.000000	19.037115
353.000000	16.195351
352.000000	13.430071
351.000000	10.769733
350.000000	8.387962
349.000000	6.250139
348.000000	4.419483
347.000000	2.952956
346.000000	1.844712
345.000000	1.076140
344.000000	0.578204
343.000000	0.289679
342.000000	0.135402
341.000000	0.051116
340.000000	0.019997
339.000000	0.020484
338.000000	0.013695
337.000000	0.018086
336.000000	0.022949
335.000000	0.022402
334.000000	0.027099
333.000000	0.024589
332.000000	0.026251
331.000000	0.027451
330.000000	0.030981
329.000000	0.028730
328.000000	0.026921
327.000000	0.025167
326.000000	0.028710
325.000000	0.030901
