PE UV       SUBTECH     SPECTRUM    ASCII       PEDS        4.00        
   -1
J33.Sample.Raw.asc
18/05/03
11:28:27.00
18/05/03
11:28:27.00
Administrator
longitudinal
325.000000
1
Lambda 850
850L1710193
PerkinElmer UV WinLab 6.4.0.973 / 2.02.06 Lambda 800 UV/VIS, Jan 28 2016 16:58:34

0
0
2
0
0
UV/VIS
1
1
1
RBeamAtt,SBeamAtt,60mm sphere
0
0
0
0
Fix
 
0
0.16
0
0
0
 
 
 
0
 
0
319.2
0
Front
100
 
S:100 R:100
 
0
0
0
 
0
 
 
 
0
 
 
0
0
0
0
0
 
 
 
 
0
0


0
0
#HDR
-1
-1
#GR
nm
%T
1.0
0.0
900.000000
-1.000000
576
8
75.383196
0.015145
#DATA
900.000000	68.649665
899.000000	72.514500
898.000000	72.959560
897.000000	68.138812
896.000000	74.176471
895.000000	70.574566
894.000000	73.523102
893.000000	74.029449
892.000000	72.914629
891.000000	74.499635
890.000000	73.296334
889.000000	74.890093
888.000000	72.560633
887.000000	72.132476
886.000000	73.837572
885.000000	73.369319
884.000000	74.577737
883.000000	74.202517
882.000000	75.383196
881.000000	72.417099
880.000000	73.493178
879.000000	71.762442
878.000000	71.551939
877.000000	73.882467
876.000000	73.556711
875.000000	72.655235
874.000000	73.605677
873.000000	73.726744
872.000000	72.675284
871.000000	72.848398
870.000000	73.133695
869.000000	72.365089
868.000000	73.810363
867.000000	73.419651
866.000000	73.718783
865.000000	73.478447
864.000000	72.925070
863.000000	73.383475
862.000000	73.871073
861.000000	72.116284
860.000000	71.604115
859.000000	72.978986
858.000000	72.536736
857.000000	72.965911
856.000000	72.881927
855.000000	72.592441
854.000000	72.327822
853.000000	72.767960
852.000000	72.975243
851.000000	72.275850
850.000000	71.736014
849.000000	72.133777
848.000000	72.367628
847.000000	72.477773
846.000000	72.375247
845.000000	72.538641
844.000000	72.084412
843.000000	72.434422
842.000000	72.319839
841.000000	72.336796
840.000000	72.033539
839.000000	71.827601
838.000000	71.879875
837.000000	72.018627
836.000000	71.927404
835.000000	71.561192
834.000000	71.520228
833.000000	71.658503
832.000000	71.630347
831.000000	71.505718
830.000000	71.371692
829.000000	71.515021
828.000000	71.421462
827.000000	71.546059
826.000000	71.513204
825.000000	71.207786
824.000000	70.976300
823.000000	71.094082
822.000000	71.024476
821.000000	71.185166
820.000000	71.377673
819.000000	71.271184
818.000000	71.238853
817.000000	71.230365
816.000000	70.885166
815.000000	70.748388
814.000000	71.057192
813.000000	70.921048
812.000000	70.809087
811.000000	70.579970
810.000000	70.592452
809.000000	70.825893
808.000000	70.794478
807.000000	70.595020
806.000000	70.606670
805.000000	70.666697
804.000000	70.791333
803.000000	70.698351
802.000000	70.484156
801.000000	70.407838
800.000000	70.480734
799.000000	70.576447
798.000000	70.541399
797.000000	70.570292
796.000000	70.567242
795.000000	70.511235
794.000000	70.449424
793.000000	70.245893
792.000000	70.234691
791.000000	70.307649
790.000000	70.265858
789.000000	70.184416
788.000000	70.263965
787.000000	70.268515
786.000000	70.317644
785.000000	70.374047
784.000000	70.220733
783.000000	70.157954
782.000000	70.052489
781.000000	70.062651
780.000000	70.121654
779.000000	70.017979
778.000000	70.040214
777.000000	69.984214
776.000000	69.797214
775.000000	69.798237
774.000000	69.866687
773.000000	69.943635
772.000000	69.977973
771.000000	69.842415
770.000000	69.663731
769.000000	69.697339
768.000000	69.758401
767.000000	69.720591
766.000000	69.842108
765.000000	69.905117
764.000000	69.812686
763.000000	69.653479
762.000000	69.640456
761.000000	69.597134
760.000000	69.490289
759.000000	69.541178
758.000000	69.556393
757.000000	69.507455
756.000000	69.486013
755.000000	69.574061
754.000000	69.430989
753.000000	69.257587
752.000000	69.217205
751.000000	69.240261
750.000000	69.211534
749.000000	69.097569
748.000000	69.167209
747.000000	69.305537
746.000000	69.249533
745.000000	69.221793
744.000000	69.162888
743.000000	69.144826
742.000000	69.028881
741.000000	68.979463
740.000000	68.996321
739.000000	68.951212
738.000000	68.974166
737.000000	69.001047
736.000000	68.963180
735.000000	68.924635
734.000000	68.879124
733.000000	68.898137
732.000000	68.735685
731.000000	68.743066
730.000000	68.677260
729.000000	68.699137
728.000000	68.778365
727.000000	68.748877
726.000000	68.686093
725.000000	68.535802
724.000000	68.572428
723.000000	68.648104
722.000000	68.609598
721.000000	68.470466
720.000000	68.501737
719.000000	68.606178
718.000000	68.494718
717.000000	68.566610
716.000000	68.485005
715.000000	68.488386
714.000000	68.466975
713.000000	68.396071
712.000000	68.349239
711.000000	68.377110
710.000000	68.358632
709.000000	68.302643
708.000000	68.271598
707.000000	68.184174
706.000000	68.153218
705.000000	68.206846
704.000000	68.282361
703.000000	68.240733
702.000000	68.175001
701.000000	68.206001
700.000000	68.094955
699.000000	68.030603
698.000000	67.995458
697.000000	68.003964
696.000000	68.012356
695.000000	67.997012
694.000000	67.949248
693.000000	67.818468
692.000000	67.849196
691.000000	67.914023
690.000000	67.669180
689.000000	67.687650
688.000000	67.640732
687.000000	67.682485
686.000000	67.572040
685.000000	67.523132
684.000000	67.596713
683.000000	67.483836
682.000000	67.520450
681.000000	67.503598
680.000000	67.464708
679.000000	67.308839
678.000000	67.413563
677.000000	67.326941
676.000000	67.274025
675.000000	67.178969
674.000000	67.225516
673.000000	67.189173
672.000000	67.157934
671.000000	67.076226
670.000000	66.979808
669.000000	66.969671
668.000000	66.999850
667.000000	66.885413
666.000000	66.928369
665.000000	66.818572
664.000000	66.728370
663.000000	66.613103
662.000000	66.705398
661.000000	66.683904
660.000000	66.565679
659.000000	66.553988
658.000000	66.529239
657.000000	66.554925
656.000000	66.357839
655.000000	66.318282
654.000000	66.221187
653.000000	66.198973
652.000000	66.225848
651.000000	66.147013
650.000000	66.073964
649.000000	66.007180
648.000000	66.018350
647.000000	65.925215
646.000000	65.854964
645.000000	65.720318
644.000000	65.670429
643.000000	65.647980
642.000000	65.548835
641.000000	65.509911
640.000000	65.446680
639.000000	65.388133
638.000000	65.310762
637.000000	65.232425
636.000000	65.178511
635.000000	65.156504
634.000000	65.079798
633.000000	64.922461
632.000000	64.875298
631.000000	64.886968
630.000000	64.738816
629.000000	64.673222
628.000000	64.626875
627.000000	64.552160
626.000000	64.429124
625.000000	64.345560
624.000000	64.312831
623.000000	64.215767
622.000000	64.198547
621.000000	64.130808
620.000000	64.052590
619.000000	63.959556
618.000000	63.892898
617.000000	63.758247
616.000000	63.738151
615.000000	63.705318
614.000000	63.601535
613.000000	63.517608
612.000000	63.422534
611.000000	63.360723
610.000000	63.281006
609.000000	63.209691
608.000000	63.118222
607.000000	62.959918
606.000000	63.005142
605.000000	62.892968
604.000000	62.818049
603.000000	62.726252
602.000000	62.591848
601.000000	62.533077
600.000000	62.483692
599.000000	62.400903
598.000000	62.387011
597.000000	62.286469
596.000000	62.193918
595.000000	62.137303
594.000000	62.014010
593.000000	61.952486
592.000000	61.846614
591.000000	61.787695
590.000000	61.742055
589.000000	61.619861
588.000000	61.510873
587.000000	61.443737
586.000000	61.380776
585.000000	61.293817
584.000000	61.228638
583.000000	61.061267
582.000000	61.014964
581.000000	60.962188
580.000000	60.901658
579.000000	60.835911
578.000000	60.758293
577.000000	60.668157
576.000000	60.608251
575.000000	60.543111
574.000000	60.443254
573.000000	60.324295
572.000000	60.261631
571.000000	60.178364
570.000000	60.090380
569.000000	60.067176
568.000000	59.962498
567.000000	59.877139
566.000000	59.793518
565.000000	59.704760
564.000000	59.650149
563.000000	59.595238
562.000000	59.529398
561.000000	59.486044
560.000000	59.453017
559.000000	59.344352
558.000000	59.223765
557.000000	59.190324
556.000000	59.134611
555.000000	59.029783
554.000000	58.993646
553.000000	58.924572
552.000000	58.812377
551.000000	58.703632
550.000000	58.634457
549.000000	58.635314
548.000000	58.592008
547.000000	58.483528
546.000000	58.409224
545.000000	58.322871
544.000000	58.284218
543.000000	58.229030
542.000000	58.157683
541.000000	58.086858
540.000000	58.034063
539.000000	57.956810
538.000000	57.896773
537.000000	57.858924
536.000000	57.777989
535.000000	57.708031
534.000000	57.652254
533.000000	57.584140
532.000000	57.528776
531.000000	57.511469
530.000000	57.417217
529.000000	57.339954
528.000000	57.310886
527.000000	57.244468
526.000000	57.184539
525.000000	57.119953
524.000000	57.045768
523.000000	56.984733
522.000000	56.932402
521.000000	56.899785
520.000000	56.857398
519.000000	56.793227
518.000000	56.715790
517.000000	56.657303
516.000000	56.617347
515.000000	56.573160
514.000000	56.513059
513.000000	56.431018
512.000000	56.379228
511.000000	56.354626
510.000000	56.303301
509.000000	56.241780
508.000000	56.176286
507.000000	56.110234
506.000000	56.083073
505.000000	56.043145
504.000000	55.969233
503.000000	55.945921
502.000000	55.908269
501.000000	55.862435
500.000000	55.813494
499.000000	55.744379
498.000000	55.669672
497.000000	55.635042
496.000000	55.627131
495.000000	55.576483
494.000000	55.524343
493.000000	55.460670
492.000000	55.416877
491.000000	55.343327
490.000000	55.272872
489.000000	55.261228
488.000000	55.242683
487.000000	55.187012
486.000000	55.129912
485.000000	55.074699
484.000000	55.033059
483.000000	54.954194
482.000000	54.914167
481.000000	54.897794
480.000000	54.811773
479.000000	54.749647
478.000000	54.705086
477.000000	54.619785
476.000000	54.565279
475.000000	54.544420
474.000000	54.454626
473.000000	54.381660
472.000000	54.339310
471.000000	54.294804
470.000000	54.240554
469.000000	54.190711
468.000000	54.139168
467.000000	54.076972
466.000000	54.015163
465.000000	53.939552
464.000000	53.888493
463.000000	53.829261
462.000000	53.787031
461.000000	53.710994
460.000000	53.656089
459.000000	53.625743
458.000000	53.563707
457.000000	53.487108
456.000000	53.431353
455.000000	53.371593
454.000000	53.299662
453.000000	53.209356
452.000000	53.154242
451.000000	53.109407
450.000000	53.033306
449.000000	52.967038
448.000000	52.919361
447.000000	52.803742
446.000000	52.767070
445.000000	52.694542
444.000000	52.613128
443.000000	52.470601
442.000000	52.410436
441.000000	52.362740
440.000000	52.279823
439.000000	52.195804
438.000000	52.068279
437.000000	51.998961
436.000000	51.914301
435.000000	51.858045
434.000000	51.767632
433.000000	51.667726
432.000000	51.571530
431.000000	51.473360
430.000000	51.353707
429.000000	51.271783
428.000000	51.188417
427.000000	51.090991
426.000000	50.951847
425.000000	50.941872
424.000000	50.793094
423.000000	50.632969
422.000000	50.533204
421.000000	50.409435
420.000000	50.289684
419.000000	50.228014
418.000000	50.126543
417.000000	49.972678
416.000000	49.915263
415.000000	49.783795
414.000000	49.585268
413.000000	49.412126
412.000000	49.303236
411.000000	49.141977
410.000000	49.046575
409.000000	48.847892
408.000000	48.748149
407.000000	48.595281
406.000000	48.411402
405.000000	48.305495
404.000000	48.126640
403.000000	47.972851
402.000000	47.752983
401.000000	47.587107
400.000000	47.484706
399.000000	47.316022
398.000000	47.119296
397.000000	46.947469
396.000000	46.756424
395.000000	46.486723
394.000000	46.333038
393.000000	46.127012
392.000000	45.949055
391.000000	45.670982
390.000000	45.457195
389.000000	45.217115
388.000000	45.064695
387.000000	44.837307
386.000000	44.507781
385.000000	44.265072
384.000000	44.032482
383.000000	43.853668
382.000000	43.618372
381.000000	43.331824
380.000000	43.033092
379.000000	42.613786
378.000000	42.294683
377.000000	42.020602
376.000000	41.661734
375.000000	41.290265
374.000000	41.084226
373.000000	40.540126
372.000000	40.068327
371.000000	39.628675
370.000000	38.993787
369.000000	38.402028
368.000000	37.694755
367.000000	36.936563
366.000000	35.925932
365.000000	35.004271
364.000000	33.791235
363.000000	32.484730
362.000000	31.111320
361.000000	29.530160
360.000000	27.838704
359.000000	25.877969
358.000000	23.954512
357.000000	21.708781
356.000000	19.404067
355.000000	17.051084
354.000000	14.582153
353.000000	12.214437
352.000000	9.920463
351.000000	7.773410
350.000000	5.870559
349.000000	4.238155
348.000000	2.911894
347.000000	1.864255
346.000000	1.115559
345.000000	0.617581
344.000000	0.318769
343.000000	0.158703
342.000000	0.071392
341.000000	0.031911
340.000000	0.017376
339.000000	0.015145
338.000000	0.020203
337.000000	0.023823
336.000000	0.024699
335.000000	0.019772
334.000000	0.018716
333.000000	0.024198
332.000000	0.026055
331.000000	0.026377
330.000000	0.031959
329.000000	0.030293
328.000000	0.033088
327.000000	0.036037
326.000000	0.035471
325.000000	0.029430
