PE UV       SUBTECH     SPECTRUM    ASCII       PEDS        4.00        
   -1
J37.Sample.Raw.asc
18/05/03
11:47:55.00
18/05/03
11:47:55.00
Administrator
longitudinal
325.000000
1
Lambda 850
850L1710193
PerkinElmer UV WinLab 6.4.0.973 / 2.02.06 Lambda 800 UV/VIS, Jan 28 2016 16:58:34

0
0
2
0
0
UV/VIS
1
1
1
RBeamAtt,SBeamAtt,60mm sphere
0
0
0
0
Fix
 
0
0.16
0
0
0
 
 
 
0
 
0
319.2
0
Front
100
 
S:100 R:100
 
0
0
0
 
0
 
 
 
0
 
 
0
0
0
0
0
 
 
 
 
0
0


0
0
#HDR
-1
-1
#GR
nm
%T
1.0
0.0
900.000000
-1.000000
576
8
77.283933
0.016892
#DATA
900.000000	72.731110
899.000000	73.310696
898.000000	77.040174
897.000000	70.403444
896.000000	75.858328
895.000000	72.131332
894.000000	72.823524
893.000000	73.757369
892.000000	72.812381
891.000000	73.623295
890.000000	74.059013
889.000000	77.283933
888.000000	74.711523
887.000000	73.728502
886.000000	74.204123
885.000000	75.516038
884.000000	76.666776
883.000000	73.946317
882.000000	74.892004
881.000000	71.746485
880.000000	75.123059
879.000000	73.752356
878.000000	73.342113
877.000000	74.445086
876.000000	73.963344
875.000000	72.853901
874.000000	74.044678
873.000000	74.124964
872.000000	72.167062
871.000000	74.238085
870.000000	74.261197
869.000000	74.166715
868.000000	74.722094
867.000000	74.950776
866.000000	73.943833
865.000000	73.069882
864.000000	73.705846
863.000000	74.302711
862.000000	73.769222
861.000000	73.425019
860.000000	72.676898
859.000000	74.474642
858.000000	73.754405
857.000000	73.810748
856.000000	73.797442
855.000000	73.662231
854.000000	73.454438
853.000000	73.898451
852.000000	74.254019
851.000000	73.797412
850.000000	73.483714
849.000000	73.270434
848.000000	73.745680
847.000000	73.716787
846.000000	73.191439
845.000000	73.371886
844.000000	72.968693
843.000000	73.531838
842.000000	73.166188
841.000000	73.028609
840.000000	73.060393
839.000000	73.001669
838.000000	72.954102
837.000000	73.181202
836.000000	72.924770
835.000000	72.606425
834.000000	72.419972
833.000000	72.572666
832.000000	72.635715
831.000000	72.876455
830.000000	72.743536
829.000000	72.756219
828.000000	72.489058
827.000000	72.701771
826.000000	72.572135
825.000000	72.549296
824.000000	72.625615
823.000000	72.698686
822.000000	72.393115
821.000000	72.529893
820.000000	72.810961
819.000000	72.615802
818.000000	72.353596
817.000000	72.359559
816.000000	72.309419
815.000000	72.345598
814.000000	72.275023
813.000000	72.220744
812.000000	72.299695
811.000000	72.099626
810.000000	72.178690
809.000000	72.427059
808.000000	72.425311
807.000000	72.323936
806.000000	72.238924
805.000000	72.109223
804.000000	71.981672
803.000000	72.030926
802.000000	71.951275
801.000000	71.911923
800.000000	71.980069
799.000000	72.106568
798.000000	72.152744
797.000000	72.021707
796.000000	72.149563
795.000000	72.166012
794.000000	71.830473
793.000000	71.847414
792.000000	71.961347
791.000000	71.920609
790.000000	71.923666
789.000000	71.933119
788.000000	71.966606
787.000000	71.995065
786.000000	72.121626
785.000000	72.161062
784.000000	71.965985
783.000000	71.934358
782.000000	71.865284
781.000000	72.027473
780.000000	72.085704
779.000000	71.911046
778.000000	72.018717
777.000000	71.952990
776.000000	71.798561
775.000000	71.798798
774.000000	71.815479
773.000000	71.800841
772.000000	71.828968
771.000000	71.852187
770.000000	71.732752
769.000000	71.672547
768.000000	71.661264
767.000000	71.697025
766.000000	71.754844
765.000000	71.737709
764.000000	71.734577
763.000000	71.638012
762.000000	71.683441
761.000000	71.711254
760.000000	71.586622
759.000000	71.563980
758.000000	71.660351
757.000000	71.644791
756.000000	71.573969
755.000000	71.619406
754.000000	71.581472
753.000000	71.485499
752.000000	71.472373
751.000000	71.554503
750.000000	71.537175
749.000000	71.534304
748.000000	71.415674
747.000000	71.434062
746.000000	71.387378
745.000000	71.336878
744.000000	71.345900
743.000000	71.432200
742.000000	71.338340
741.000000	71.295052
740.000000	71.274067
739.000000	71.326796
738.000000	71.424633
737.000000	71.369057
736.000000	71.284544
735.000000	71.253337
734.000000	71.172367
733.000000	71.201188
732.000000	71.174327
731.000000	71.120234
730.000000	71.163871
729.000000	71.171478
728.000000	71.211047
727.000000	71.216723
726.000000	71.165211
725.000000	71.094111
724.000000	71.102852
723.000000	71.154721
722.000000	71.087865
721.000000	71.096019
720.000000	71.098036
719.000000	71.043626
718.000000	71.050529
717.000000	71.072831
716.000000	71.109924
715.000000	71.073880
714.000000	71.001300
713.000000	70.993887
712.000000	70.938314
711.000000	70.985315
710.000000	71.045780
709.000000	70.902571
708.000000	70.946475
707.000000	70.946073
706.000000	70.905805
705.000000	70.880010
704.000000	70.836950
703.000000	70.836814
702.000000	70.775915
701.000000	70.785947
700.000000	70.739110
699.000000	70.786634
698.000000	70.751464
697.000000	70.719188
696.000000	70.668316
695.000000	70.727386
694.000000	70.724620
693.000000	70.670611
692.000000	70.744689
691.000000	70.711048
690.000000	70.449316
689.000000	70.431928
688.000000	70.542221
687.000000	70.487811
686.000000	70.406500
685.000000	70.386921
684.000000	70.474907
683.000000	70.419677
682.000000	70.420779
681.000000	70.292868
680.000000	70.354833
679.000000	70.293638
678.000000	70.356990
677.000000	70.267175
676.000000	70.356660
675.000000	70.269639
674.000000	70.252452
673.000000	70.218072
672.000000	70.162828
671.000000	70.147356
670.000000	70.118498
669.000000	70.121628
668.000000	70.095004
667.000000	69.953369
666.000000	70.173283
665.000000	69.999617
664.000000	69.998721
663.000000	69.904655
662.000000	69.949283
661.000000	69.863950
660.000000	69.848902
659.000000	69.969212
658.000000	69.822105
657.000000	69.910578
656.000000	69.769791
655.000000	69.730170
654.000000	69.747499
653.000000	69.657812
652.000000	69.694152
651.000000	69.619349
650.000000	69.699160
649.000000	69.597163
648.000000	69.629102
647.000000	69.587014
646.000000	69.558794
645.000000	69.490270
644.000000	69.505878
643.000000	69.534779
642.000000	69.501955
641.000000	69.411514
640.000000	69.329958
639.000000	69.302095
638.000000	69.288491
637.000000	69.184225
636.000000	69.283271
635.000000	69.227096
634.000000	69.152400
633.000000	69.186845
632.000000	69.036877
631.000000	69.118613
630.000000	69.029065
629.000000	68.973304
628.000000	68.997370
627.000000	68.976753
626.000000	68.887632
625.000000	68.841998
624.000000	68.878913
623.000000	68.822590
622.000000	68.798111
621.000000	68.844405
620.000000	68.791478
619.000000	68.646439
618.000000	68.639398
617.000000	68.539851
616.000000	68.592056
615.000000	68.597957
614.000000	68.514351
613.000000	68.453733
612.000000	68.412234
611.000000	68.391747
610.000000	68.399706
609.000000	68.328001
608.000000	68.331409
607.000000	68.215173
606.000000	68.246030
605.000000	68.250770
604.000000	68.162293
603.000000	68.134227
602.000000	68.021446
601.000000	67.973380
600.000000	68.015224
599.000000	67.943436
598.000000	67.915164
597.000000	67.890404
596.000000	67.862673
595.000000	67.836539
594.000000	67.746838
593.000000	67.729133
592.000000	67.699159
591.000000	67.634833
590.000000	67.716215
589.000000	67.598139
588.000000	67.506518
587.000000	67.534212
586.000000	67.445613
585.000000	67.447957
584.000000	67.449894
583.000000	67.329217
582.000000	67.297793
581.000000	67.211158
580.000000	67.242326
579.000000	67.223596
578.000000	67.179069
577.000000	67.146807
576.000000	67.116053
575.000000	67.075956
574.000000	67.021736
573.000000	66.922080
572.000000	66.885818
571.000000	66.887355
570.000000	66.861946
569.000000	66.843933
568.000000	66.758084
567.000000	66.746708
566.000000	66.697776
565.000000	66.651843
564.000000	66.616280
563.000000	66.582517
562.000000	66.555490
561.000000	66.565477
560.000000	66.481391
559.000000	66.453973
558.000000	66.391348
557.000000	66.392294
556.000000	66.382043
555.000000	66.294855
554.000000	66.272197
553.000000	66.201133
552.000000	66.159649
551.000000	66.107853
550.000000	66.097180
549.000000	66.102459
548.000000	66.051663
547.000000	65.997510
546.000000	65.925504
545.000000	65.884945
544.000000	65.871640
543.000000	65.842470
542.000000	65.784899
541.000000	65.725478
540.000000	65.731393
539.000000	65.702756
538.000000	65.663795
537.000000	65.647531
536.000000	65.595095
535.000000	65.525069
534.000000	65.492677
533.000000	65.476062
532.000000	65.464866
531.000000	65.443168
530.000000	65.388209
529.000000	65.358236
528.000000	65.330151
527.000000	65.284232
526.000000	65.252031
525.000000	65.199559
524.000000	65.157661
523.000000	65.114436
522.000000	65.088523
521.000000	65.058516
520.000000	65.029093
519.000000	64.995125
518.000000	64.926359
517.000000	64.872059
516.000000	64.851744
515.000000	64.843912
514.000000	64.806600
513.000000	64.749567
512.000000	64.700934
511.000000	64.668051
510.000000	64.625294
509.000000	64.567405
508.000000	64.520972
507.000000	64.496335
506.000000	64.481993
505.000000	64.426278
504.000000	64.359211
503.000000	64.338586
502.000000	64.300404
501.000000	64.264827
500.000000	64.243043
499.000000	64.160249
498.000000	64.085837
497.000000	64.061114
496.000000	64.032405
495.000000	64.004485
494.000000	63.963322
493.000000	63.893762
492.000000	63.842578
491.000000	63.768656
490.000000	63.735715
489.000000	63.707573
488.000000	63.635062
487.000000	63.580018
486.000000	63.562618
485.000000	63.511353
484.000000	63.484180
483.000000	63.448881
482.000000	63.373280
481.000000	63.339265
480.000000	63.277515
479.000000	63.222332
478.000000	63.201765
477.000000	63.146093
476.000000	63.093469
475.000000	63.056509
474.000000	62.994444
473.000000	62.961081
472.000000	62.930557
471.000000	62.885551
470.000000	62.832131
469.000000	62.753428
468.000000	62.704515
467.000000	62.633954
466.000000	62.562037
465.000000	62.504066
464.000000	62.460192
463.000000	62.392745
462.000000	62.350618
461.000000	62.287716
460.000000	62.217921
459.000000	62.193979
458.000000	62.128164
457.000000	62.055277
456.000000	61.992159
455.000000	61.878043
454.000000	61.796661
453.000000	61.686848
452.000000	61.614562
451.000000	61.598372
450.000000	61.550153
449.000000	61.476643
448.000000	61.335604
447.000000	61.168977
446.000000	61.129979
445.000000	61.068119
444.000000	60.937432
443.000000	60.871512
442.000000	60.795366
441.000000	60.733726
440.000000	60.599686
439.000000	60.508760
438.000000	60.429927
437.000000	60.339882
436.000000	60.270106
435.000000	60.142321
434.000000	60.054483
433.000000	59.892653
432.000000	59.771628
431.000000	59.705931
430.000000	59.633568
429.000000	59.498697
428.000000	59.417052
427.000000	59.303345
426.000000	59.141338
425.000000	59.110286
424.000000	58.969553
423.000000	58.802475
422.000000	58.688684
421.000000	58.510262
420.000000	58.391917
419.000000	58.311865
418.000000	58.155906
417.000000	58.027505
416.000000	57.858950
415.000000	57.737585
414.000000	57.558288
413.000000	57.348179
412.000000	57.267000
411.000000	57.073617
410.000000	56.890552
409.000000	56.763435
408.000000	56.556452
407.000000	56.433652
406.000000	56.224255
405.000000	56.088058
404.000000	55.940409
403.000000	55.730883
402.000000	55.486340
401.000000	55.241096
400.000000	55.102417
399.000000	54.875594
398.000000	54.706720
397.000000	54.475865
396.000000	54.204767
395.000000	54.001371
394.000000	53.763189
393.000000	53.548084
392.000000	53.246841
391.000000	52.982122
390.000000	52.774254
389.000000	52.530661
388.000000	52.252852
387.000000	51.973112
386.000000	51.603688
385.000000	51.291292
384.000000	50.965487
383.000000	50.712295
382.000000	50.292675
381.000000	50.032250
380.000000	49.566855
379.000000	49.059522
378.000000	48.589950
377.000000	48.128193
376.000000	47.565586
375.000000	46.934785
374.000000	46.420243
373.000000	45.670907
372.000000	44.858532
371.000000	43.896253
370.000000	42.994144
369.000000	41.875901
368.000000	40.597571
367.000000	39.247719
366.000000	37.644257
365.000000	35.909284
364.000000	33.990542
363.000000	31.809371
362.000000	29.468217
361.000000	26.952220
360.000000	24.300051
359.000000	21.555145
358.000000	18.793464
357.000000	15.858655
356.000000	13.052577
355.000000	10.415884
354.000000	7.994973
353.000000	5.897750
352.000000	4.121927
351.000000	2.729625
350.000000	1.700891
349.000000	0.984699
348.000000	0.537313
347.000000	0.263652
346.000000	0.121267
345.000000	0.054946
344.000000	0.030442
343.000000	0.022104
342.000000	0.019718
341.000000	0.018235
340.000000	0.019123
339.000000	0.016892
338.000000	0.021077
337.000000	0.020517
336.000000	0.019934
335.000000	0.025908
334.000000	0.028854
333.000000	0.027711
332.000000	0.025275
331.000000	0.023544
330.000000	0.024433
329.000000	0.024821
328.000000	0.035535
327.000000	0.035058
326.000000	0.035471
325.000000	0.034629
