PE UV       SUBTECH     SPECTRUM    ASCII       PEDS        4.00        
   -1
J44.Sample.Raw.asc
18/05/03
11:33:37.00
18/05/03
11:33:37.00
Administrator
longitudinal
325.000000
1
Lambda 850
850L1710193
PerkinElmer UV WinLab 6.4.0.973 / 2.02.06 Lambda 800 UV/VIS, Jan 28 2016 16:58:34

0
0
2
0
0
UV/VIS
1
1
1
RBeamAtt,SBeamAtt,60mm sphere
0
0
0
0
Fix
 
0
0.16
0
0
0
 
 
 
0
 
0
319.2
0
Front
100
 
S:100 R:100
 
0
0
0
 
0
 
 
 
0
 
 
0
0
0
0
0
 
 
 
 
0
0


0
0
#HDR
-1
-1
#GR
nm
%T
1.0
0.0
900.000000
-1.000000
576
8
79.032423
0.016947
#DATA
900.000000	74.029768
899.000000	68.284966
898.000000	73.925442
897.000000	70.182312
896.000000	79.032423
895.000000	69.169395
894.000000	72.841357
893.000000	76.188809
892.000000	73.776920
891.000000	75.584618
890.000000	75.289156
889.000000	75.029673
888.000000	74.773666
887.000000	73.583677
886.000000	74.675212
885.000000	76.949670
884.000000	74.052092
883.000000	75.222534
882.000000	75.151477
881.000000	72.373334
880.000000	74.527141
879.000000	73.571542
878.000000	73.044532
877.000000	73.973778
876.000000	74.047298
875.000000	75.183919
874.000000	75.480808
873.000000	75.322549
872.000000	72.994079
871.000000	73.816310
870.000000	74.529899
869.000000	73.980847
868.000000	75.470307
867.000000	74.678408
866.000000	74.424771
865.000000	73.816570
864.000000	75.126215
863.000000	74.753952
862.000000	73.966585
861.000000	73.539492
860.000000	73.617379
859.000000	74.111877
858.000000	73.616202
857.000000	74.554911
856.000000	74.409804
855.000000	74.109174
854.000000	73.659901
853.000000	74.363230
852.000000	74.718083
851.000000	74.044944
850.000000	73.675831
849.000000	73.261565
848.000000	73.824556
847.000000	73.941723
846.000000	73.596957
845.000000	73.648590
844.000000	73.302780
843.000000	73.413578
842.000000	73.574021
841.000000	73.645028
840.000000	73.430155
839.000000	73.221596
838.000000	73.404527
837.000000	73.368724
836.000000	73.319864
835.000000	72.897815
834.000000	72.988986
833.000000	73.071545
832.000000	72.902728
831.000000	73.068539
830.000000	72.945507
829.000000	73.000880
828.000000	72.865122
827.000000	72.787529
826.000000	72.797874
825.000000	72.622292
824.000000	72.591219
823.000000	72.783646
822.000000	72.489018
821.000000	72.676738
820.000000	72.805679
819.000000	72.780811
818.000000	72.570063
817.000000	72.605072
816.000000	72.461154
815.000000	72.371513
814.000000	72.387310
813.000000	72.401527
812.000000	72.518164
811.000000	72.265693
810.000000	72.199431
809.000000	72.434185
808.000000	72.495300
807.000000	72.336258
806.000000	72.434151
805.000000	72.349309
804.000000	72.286637
803.000000	72.266284
802.000000	72.078028
801.000000	72.087180
800.000000	72.216176
799.000000	72.196748
798.000000	72.265206
797.000000	72.103549
796.000000	72.157789
795.000000	72.222213
794.000000	72.129518
793.000000	72.127286
792.000000	72.150716
791.000000	72.107354
790.000000	71.993221
789.000000	71.943472
788.000000	72.046445
787.000000	72.069594
786.000000	72.040041
785.000000	72.194942
784.000000	72.168493
783.000000	72.005906
782.000000	71.852817
781.000000	71.870784
780.000000	71.998537
779.000000	71.995241
778.000000	72.004005
777.000000	71.931272
776.000000	71.867806
775.000000	71.886260
774.000000	71.824949
773.000000	71.724053
772.000000	71.730091
771.000000	71.695837
770.000000	71.588409
769.000000	71.739011
768.000000	71.889102
767.000000	71.809291
766.000000	71.790076
765.000000	71.811610
764.000000	71.797513
763.000000	71.647431
762.000000	71.609968
761.000000	71.634532
760.000000	71.673601
759.000000	71.833460
758.000000	71.685371
757.000000	71.562498
756.000000	71.600460
755.000000	71.631858
754.000000	71.550814
753.000000	71.410532
752.000000	71.381948
751.000000	71.397527
750.000000	71.464744
749.000000	71.473622
748.000000	71.392548
747.000000	71.475397
746.000000	71.494262
745.000000	71.435789
744.000000	71.338550
743.000000	71.352499
742.000000	71.381178
741.000000	71.384932
740.000000	71.326403
739.000000	71.310288
738.000000	71.303556
737.000000	71.344884
736.000000	71.220445
735.000000	71.257710
734.000000	71.229055
733.000000	71.194928
732.000000	71.009701
731.000000	71.052929
730.000000	71.090332
729.000000	71.105000
728.000000	71.066755
727.000000	71.127670
726.000000	71.127646
725.000000	71.080280
724.000000	71.068642
723.000000	71.065089
722.000000	71.076329
721.000000	71.084742
720.000000	71.044557
719.000000	71.005805
718.000000	70.909850
717.000000	71.023510
716.000000	71.025542
715.000000	70.918256
714.000000	70.902532
713.000000	70.914277
712.000000	70.896131
711.000000	70.891770
710.000000	70.931968
709.000000	70.857128
708.000000	70.799430
707.000000	70.752336
706.000000	70.811409
705.000000	70.801586
704.000000	70.842487
703.000000	70.818895
702.000000	70.661136
701.000000	70.692545
700.000000	70.648667
699.000000	70.564984
698.000000	70.654022
697.000000	70.603105
696.000000	70.579896
695.000000	70.631179
694.000000	70.606074
693.000000	70.477609
692.000000	70.545245
691.000000	70.577728
690.000000	70.333318
689.000000	70.337513
688.000000	70.307520
687.000000	70.300385
686.000000	70.215041
685.000000	70.203424
684.000000	70.248216
683.000000	70.228651
682.000000	70.217687
681.000000	70.192929
680.000000	70.236391
679.000000	70.174315
678.000000	70.142346
677.000000	70.102801
676.000000	70.157840
675.000000	70.104384
674.000000	70.098544
673.000000	70.018829
672.000000	69.999748
671.000000	69.961085
670.000000	69.796777
669.000000	69.922961
668.000000	69.910182
667.000000	69.782918
666.000000	69.945829
665.000000	69.768365
664.000000	69.718576
663.000000	69.630490
662.000000	69.712803
661.000000	69.657193
660.000000	69.600873
659.000000	69.645559
658.000000	69.607686
657.000000	69.595497
656.000000	69.514420
655.000000	69.444336
654.000000	69.421515
653.000000	69.380422
652.000000	69.447631
651.000000	69.368477
650.000000	69.280402
649.000000	69.258579
648.000000	69.292850
647.000000	69.161037
646.000000	69.206643
645.000000	69.058145
644.000000	69.114976
643.000000	69.085174
642.000000	69.002180
641.000000	68.969081
640.000000	68.857829
639.000000	68.908366
638.000000	68.834804
637.000000	68.756878
636.000000	68.771640
635.000000	68.796846
634.000000	68.667037
633.000000	68.571880
632.000000	68.518295
631.000000	68.573195
630.000000	68.512382
629.000000	68.408560
628.000000	68.441874
627.000000	68.365604
626.000000	68.209850
625.000000	68.231399
624.000000	68.138018
623.000000	68.157560
622.000000	68.115773
621.000000	68.045465
620.000000	68.043302
619.000000	67.930688
618.000000	67.914577
617.000000	67.813570
616.000000	67.766477
615.000000	67.746053
614.000000	67.715018
613.000000	67.658304
612.000000	67.593799
611.000000	67.563400
610.000000	67.525448
609.000000	67.475898
608.000000	67.438127
607.000000	67.279467
606.000000	67.377706
605.000000	67.343276
604.000000	67.210863
603.000000	67.132264
602.000000	67.057383
601.000000	67.064823
600.000000	67.013078
599.000000	66.954039
598.000000	66.875008
597.000000	66.860319
596.000000	66.820639
595.000000	66.722262
594.000000	66.663102
593.000000	66.638642
592.000000	66.582577
591.000000	66.561921
590.000000	66.517663
589.000000	66.415602
588.000000	66.340896
587.000000	66.341900
586.000000	66.254218
585.000000	66.217041
584.000000	66.158433
583.000000	66.045601
582.000000	66.044629
581.000000	65.967516
580.000000	65.909410
579.000000	65.887825
578.000000	65.827460
577.000000	65.804600
576.000000	65.755173
575.000000	65.665811
574.000000	65.620900
573.000000	65.524277
572.000000	65.511268
571.000000	65.489447
570.000000	65.437304
569.000000	65.326937
568.000000	65.284916
567.000000	65.256390
566.000000	65.196965
565.000000	65.141348
564.000000	65.103022
563.000000	65.031591
562.000000	64.963366
561.000000	64.964455
560.000000	64.937823
559.000000	64.858111
558.000000	64.770502
557.000000	64.719282
556.000000	64.732513
555.000000	64.667527
554.000000	64.613706
553.000000	64.548177
552.000000	64.513575
551.000000	64.419344
550.000000	64.388809
549.000000	64.364161
548.000000	64.308056
547.000000	64.267052
546.000000	64.240687
545.000000	64.173107
544.000000	64.116251
543.000000	64.092221
542.000000	64.033425
541.000000	63.992733
540.000000	63.976323
539.000000	63.906889
538.000000	63.832422
537.000000	63.804194
536.000000	63.753213
535.000000	63.676915
534.000000	63.664141
533.000000	63.646217
532.000000	63.575005
531.000000	63.555690
530.000000	63.493768
529.000000	63.445994
528.000000	63.404112
527.000000	63.346064
526.000000	63.325336
525.000000	63.301079
524.000000	63.230351
523.000000	63.169271
522.000000	63.153342
521.000000	63.129919
520.000000	63.084808
519.000000	63.021146
518.000000	62.974851
517.000000	62.938196
516.000000	62.900556
515.000000	62.879699
514.000000	62.828257
513.000000	62.768868
512.000000	62.737361
511.000000	62.697197
510.000000	62.627760
509.000000	62.569280
508.000000	62.520111
507.000000	62.491377
506.000000	62.479670
505.000000	62.420055
504.000000	62.355182
503.000000	62.322649
502.000000	62.258447
501.000000	62.218974
500.000000	62.181510
499.000000	62.097280
498.000000	62.024179
497.000000	61.984044
496.000000	61.952487
495.000000	61.921494
494.000000	61.876106
493.000000	61.813418
492.000000	61.759147
491.000000	61.673443
490.000000	61.603787
489.000000	61.592006
488.000000	61.533939
487.000000	61.478521
486.000000	61.447622
485.000000	61.401462
484.000000	61.347793
483.000000	61.299627
482.000000	61.267359
481.000000	61.259336
480.000000	61.168900
479.000000	61.117309
478.000000	61.110644
477.000000	61.039842
476.000000	60.988243
475.000000	60.922641
474.000000	60.863561
473.000000	60.841480
472.000000	60.767343
471.000000	60.720020
470.000000	60.688997
469.000000	60.643916
468.000000	60.594903
467.000000	60.543813
466.000000	60.452612
465.000000	60.408073
464.000000	60.373244
463.000000	60.299928
462.000000	60.250354
461.000000	60.178586
460.000000	60.140127
459.000000	60.095967
458.000000	60.006340
457.000000	59.954971
456.000000	59.866445
455.000000	59.769359
454.000000	59.724767
453.000000	59.633219
452.000000	59.553695
451.000000	59.504496
450.000000	59.466916
449.000000	59.416308
448.000000	59.272557
447.000000	59.152645
446.000000	59.130866
445.000000	59.057559
444.000000	58.965504
443.000000	58.898696
442.000000	58.782392
441.000000	58.726695
440.000000	58.637075
439.000000	58.555398
438.000000	58.461349
437.000000	58.401346
436.000000	58.325858
435.000000	58.231070
434.000000	58.156546
433.000000	58.063826
432.000000	57.906804
431.000000	57.796802
430.000000	57.740546
429.000000	57.668905
428.000000	57.523977
427.000000	57.402270
426.000000	57.299685
425.000000	57.274987
424.000000	57.180337
423.000000	57.023127
422.000000	56.860289
421.000000	56.746605
420.000000	56.595564
419.000000	56.522578
418.000000	56.415387
417.000000	56.284606
416.000000	56.173795
415.000000	56.084993
414.000000	55.918742
413.000000	55.734701
412.000000	55.609585
411.000000	55.499839
410.000000	55.292765
409.000000	55.067202
408.000000	54.935080
407.000000	54.836303
406.000000	54.639668
405.000000	54.526663
404.000000	54.303859
403.000000	54.167631
402.000000	53.924719
401.000000	53.762973
400.000000	53.648990
399.000000	53.451266
398.000000	53.247228
397.000000	52.986830
396.000000	52.743185
395.000000	52.526057
394.000000	52.311264
393.000000	52.114881
392.000000	51.923690
391.000000	51.570390
390.000000	51.357395
389.000000	51.150464
388.000000	50.926989
387.000000	50.712009
386.000000	50.288989
385.000000	49.977642
384.000000	49.719700
383.000000	49.415210
382.000000	49.108952
381.000000	48.821030
380.000000	48.399812
379.000000	47.712646
378.000000	47.510892
377.000000	47.023059
376.000000	46.537608
375.000000	46.116200
374.000000	45.581218
373.000000	45.029879
372.000000	44.353192
371.000000	43.500344
370.000000	42.644013
369.000000	41.689341
368.000000	40.669738
367.000000	39.490048
366.000000	37.985055
365.000000	36.523256
364.000000	34.797438
363.000000	32.946142
362.000000	30.943249
361.000000	28.645506
360.000000	26.330367
359.000000	23.808669
358.000000	21.194692
357.000000	18.462808
356.000000	15.669642
355.000000	12.992445
354.000000	10.409367
353.000000	8.083868
352.000000	5.985545
351.000000	4.235762
350.000000	2.852284
349.000000	1.806895
348.000000	1.065728
347.000000	0.586775
346.000000	0.292593
345.000000	0.136734
344.000000	0.064859
343.000000	0.031605
342.000000	0.017192
341.000000	0.018720
340.000000	0.017473
339.000000	0.018445
338.000000	0.020397
337.000000	0.020030
336.000000	0.017017
335.000000	0.016947
334.000000	0.017644
333.000000	0.021369
332.000000	0.026055
331.000000	0.028721
330.000000	0.032154
329.000000	0.036254
328.000000	0.032403
327.000000	0.029672
326.000000	0.030768
325.000000	0.035120
