PE UV       SUBTECH     SPECTRUM    ASCII       PEDS        4.00        
   -1
J34.Sample.Raw.asc
18/05/03
16:13:36.00
18/05/03
16:13:36.00
Administrator
longitudinal
325.000000
1
Lambda 850
850L1710193
PerkinElmer UV WinLab 6.4.0.973 / 2.02.06 Lambda 800 UV/VIS, Jan 28 2016 16:58:34

0
0
2
0
0
UV/VIS
1
1
1
RBeamAtt,SBeamAtt,60mm sphere
0
0
0
0
Fix
 
0
0.16
0
0
0
 
 
 
0
 
0
319.2
0
Front
100
 
S:100 R:100
 
0
0
0
 
0
 
 
 
0
 
 
0
0
0
0
0
 
 
 
 
0
0


0
0
#HDR
-1
-1
#GR
nm
%T
1.0
0.0
900.000000
-1.000000
576
8
79.982976
0.013347
#DATA
900.000000	75.783121
899.000000	75.541857
898.000000	79.982976
897.000000	75.172990
896.000000	77.517950
895.000000	73.903508
894.000000	74.784551
893.000000	70.984698
892.000000	74.286567
891.000000	70.498013
890.000000	72.946034
889.000000	74.448837
888.000000	72.835416
887.000000	77.465593
886.000000	78.009969
885.000000	75.552328
884.000000	75.268532
883.000000	76.957649
882.000000	76.071898
881.000000	75.123080
880.000000	76.004614
879.000000	75.769217
878.000000	75.846606
877.000000	76.757831
876.000000	76.856463
875.000000	75.919805
874.000000	73.862595
873.000000	74.993307
872.000000	75.463055
871.000000	74.160913
870.000000	74.742742
869.000000	74.045772
868.000000	75.267023
867.000000	75.290059
866.000000	75.140718
865.000000	74.847007
864.000000	75.208930
863.000000	74.750205
862.000000	75.184695
861.000000	74.362193
860.000000	73.529188
859.000000	75.212740
858.000000	75.362739
857.000000	75.322204
856.000000	75.090121
855.000000	74.866576
854.000000	74.876171
853.000000	74.540574
852.000000	74.689608
851.000000	74.558715
850.000000	74.745361
849.000000	74.757681
848.000000	75.176745
847.000000	74.819687
846.000000	74.713906
845.000000	74.873462
844.000000	74.678752
843.000000	74.166640
842.000000	74.030733
841.000000	74.278939
840.000000	74.074280
839.000000	74.009931
838.000000	74.082196
837.000000	73.895402
836.000000	73.857084
835.000000	73.984440
834.000000	74.009239
833.000000	74.291358
832.000000	74.277887
831.000000	74.002379
830.000000	73.858972
829.000000	74.120983
828.000000	73.948044
827.000000	73.800621
826.000000	73.604681
825.000000	73.664898
824.000000	73.715051
823.000000	73.660177
822.000000	73.564358
821.000000	73.572289
820.000000	73.647142
819.000000	73.625403
818.000000	73.707862
817.000000	73.473415
816.000000	73.383394
815.000000	73.311734
814.000000	73.134826
813.000000	73.373987
812.000000	73.382538
811.000000	73.185757
810.000000	73.301727
809.000000	73.478462
808.000000	73.386571
807.000000	73.276739
806.000000	73.368206
805.000000	73.522216
804.000000	73.497163
803.000000	73.387868
802.000000	73.347004
801.000000	73.293175
800.000000	73.350055
799.000000	73.226979
798.000000	73.197112
797.000000	73.236928
796.000000	73.274756
795.000000	73.288767
794.000000	73.369647
793.000000	73.383286
792.000000	73.365923
791.000000	73.263842
790.000000	73.318961
789.000000	73.250929
788.000000	73.097942
787.000000	73.148701
786.000000	73.219014
785.000000	73.184468
784.000000	73.059078
783.000000	73.120201
782.000000	73.069419
781.000000	72.921707
780.000000	72.973831
779.000000	72.978254
778.000000	72.985550
777.000000	73.035270
776.000000	73.046590
775.000000	73.004493
774.000000	72.876514
773.000000	72.918427
772.000000	73.046667
771.000000	72.901934
770.000000	72.919267
769.000000	72.998373
768.000000	72.864104
767.000000	72.813704
766.000000	72.796229
765.000000	72.703218
764.000000	72.705969
763.000000	72.735696
762.000000	72.809775
761.000000	72.883477
760.000000	72.822797
759.000000	72.699931
758.000000	72.603135
757.000000	72.526341
756.000000	72.543155
755.000000	72.581063
754.000000	72.590112
753.000000	72.566282
752.000000	72.476163
751.000000	72.368415
750.000000	72.490191
749.000000	72.446178
748.000000	72.430551
747.000000	72.578895
746.000000	72.519601
745.000000	72.423690
744.000000	72.420540
743.000000	72.398968
742.000000	72.318741
741.000000	72.352682
740.000000	72.249730
739.000000	72.275022
738.000000	72.322666
737.000000	72.255176
736.000000	72.304172
735.000000	72.159324
734.000000	72.173675
733.000000	72.207897
732.000000	72.242461
731.000000	72.332954
730.000000	72.284445
729.000000	72.209649
728.000000	72.252878
727.000000	72.145335
726.000000	72.055313
725.000000	72.099333
724.000000	72.134168
723.000000	72.115143
722.000000	71.977067
721.000000	72.007488
720.000000	71.964569
719.000000	71.995377
718.000000	71.915762
717.000000	71.797390
716.000000	71.950233
715.000000	71.932559
714.000000	71.884812
713.000000	71.894734
712.000000	71.934125
711.000000	71.909565
710.000000	71.923611
709.000000	71.928709
708.000000	71.907306
707.000000	71.876285
706.000000	71.824053
705.000000	71.786867
704.000000	71.689253
703.000000	71.749012
702.000000	71.724683
701.000000	71.752722
700.000000	71.687687
699.000000	71.738801
698.000000	71.719931
697.000000	71.598938
696.000000	71.673775
695.000000	71.585220
694.000000	71.536618
693.000000	71.486471
692.000000	71.627859
691.000000	71.479403
690.000000	71.409146
689.000000	71.472911
688.000000	71.385446
687.000000	71.354733
686.000000	71.273596
685.000000	71.383490
684.000000	71.351041
683.000000	71.289815
682.000000	71.321435
681.000000	71.207276
680.000000	71.156907
679.000000	71.266303
678.000000	71.196205
677.000000	71.073471
676.000000	71.103244
675.000000	71.015213
674.000000	71.027419
673.000000	71.080855
672.000000	71.001854
671.000000	71.043609
670.000000	71.000231
669.000000	71.013165
668.000000	70.921859
667.000000	70.909431
666.000000	70.947353
665.000000	70.810009
664.000000	70.921499
663.000000	70.850069
662.000000	70.843703
661.000000	70.691555
660.000000	70.756205
659.000000	70.727114
658.000000	70.710938
657.000000	70.629938
656.000000	70.621410
655.000000	70.542775
654.000000	70.625356
653.000000	70.560818
652.000000	70.535275
651.000000	70.498695
650.000000	70.520473
649.000000	70.420272
648.000000	70.346779
647.000000	70.401496
646.000000	70.365308
645.000000	70.355584
644.000000	70.229075
643.000000	70.177459
642.000000	70.184784
641.000000	70.084296
640.000000	70.120863
639.000000	70.054641
638.000000	70.021989
637.000000	70.019724
636.000000	69.977256
635.000000	69.884424
634.000000	69.833941
633.000000	69.861158
632.000000	69.827260
631.000000	69.718736
630.000000	69.745900
629.000000	69.728287
628.000000	69.669115
627.000000	69.567249
626.000000	69.561739
625.000000	69.515924
624.000000	69.511321
623.000000	69.448338
622.000000	69.383186
621.000000	69.384050
620.000000	69.390403
619.000000	69.308516
618.000000	69.274852
617.000000	69.224926
616.000000	69.150712
615.000000	69.095242
614.000000	69.078221
613.000000	69.078712
612.000000	69.004514
611.000000	68.955522
610.000000	68.890979
609.000000	68.916729
608.000000	68.853605
607.000000	68.757700
606.000000	68.735385
605.000000	68.725038
604.000000	68.678171
603.000000	68.597090
602.000000	68.639632
601.000000	68.575973
600.000000	68.588911
599.000000	68.437982
598.000000	68.406466
597.000000	68.340882
596.000000	68.295070
595.000000	68.310668
594.000000	68.285487
593.000000	68.232326
592.000000	68.128192
591.000000	68.081358
590.000000	68.054078
589.000000	68.000757
588.000000	67.953158
587.000000	67.949935
586.000000	67.876011
585.000000	67.842645
584.000000	67.811883
583.000000	67.750232
582.000000	67.694473
581.000000	67.657286
580.000000	67.649261
579.000000	67.618144
578.000000	67.567831
577.000000	67.473693
576.000000	67.427019
575.000000	67.410944
574.000000	67.329159
573.000000	67.287210
572.000000	67.253538
571.000000	67.198040
570.000000	67.195351
569.000000	67.158617
568.000000	67.075491
567.000000	67.022614
566.000000	67.009359
565.000000	66.959174
564.000000	66.911237
563.000000	66.880042
562.000000	66.809675
561.000000	66.715328
560.000000	66.745251
559.000000	66.707419
558.000000	66.645472
557.000000	66.588430
556.000000	66.552586
555.000000	66.490297
554.000000	66.501091
553.000000	66.460791
552.000000	66.407404
551.000000	66.369519
550.000000	66.340692
549.000000	66.256447
548.000000	66.202055
547.000000	66.163895
546.000000	66.150002
545.000000	66.077134
544.000000	66.060474
543.000000	66.022666
542.000000	65.980124
541.000000	65.935854
540.000000	65.908553
539.000000	65.856973
538.000000	65.802938
537.000000	65.750474
536.000000	65.708414
535.000000	65.675530
534.000000	65.613622
533.000000	65.569135
532.000000	65.529718
531.000000	65.511562
530.000000	65.453452
529.000000	65.424393
528.000000	65.387531
527.000000	65.336409
526.000000	65.283235
525.000000	65.250911
524.000000	65.216718
523.000000	65.173516
522.000000	65.124148
521.000000	65.067210
520.000000	65.034905
519.000000	64.996004
518.000000	64.961894
517.000000	64.921076
516.000000	64.869985
515.000000	64.829921
514.000000	64.797373
513.000000	64.754825
512.000000	64.716418
511.000000	64.663558
510.000000	64.601495
509.000000	64.577028
508.000000	64.539664
507.000000	64.481434
506.000000	64.439186
505.000000	64.395635
504.000000	64.358009
503.000000	64.300799
502.000000	64.268875
501.000000	64.233684
500.000000	64.160109
499.000000	64.131648
498.000000	64.090876
497.000000	64.031544
496.000000	63.974906
495.000000	63.873876
494.000000	63.847432
493.000000	63.823372
492.000000	63.769359
491.000000	63.710631
490.000000	63.648091
489.000000	63.591896
488.000000	63.571772
487.000000	63.534755
486.000000	63.435003
485.000000	63.389959
484.000000	63.334237
483.000000	63.277194
482.000000	63.206607
481.000000	63.168235
480.000000	63.157624
479.000000	63.117931
478.000000	63.041128
477.000000	63.001515
476.000000	62.943576
475.000000	62.885149
474.000000	62.800773
473.000000	62.751493
472.000000	62.718353
471.000000	62.642659
470.000000	62.572286
469.000000	62.524760
468.000000	62.506486
467.000000	62.431648
466.000000	62.369394
465.000000	62.312410
464.000000	62.242515
463.000000	62.183126
462.000000	62.106408
461.000000	62.044421
460.000000	61.983947
459.000000	61.893485
458.000000	61.830891
457.000000	61.730971
456.000000	61.683157
455.000000	61.644853
454.000000	61.534194
453.000000	61.404278
452.000000	61.352337
451.000000	61.256327
450.000000	61.132790
449.000000	61.060391
448.000000	60.969615
447.000000	60.869099
446.000000	60.851048
445.000000	60.749118
444.000000	60.628924
443.000000	60.542177
442.000000	60.418185
441.000000	60.392805
440.000000	60.275997
439.000000	60.163022
438.000000	60.038964
437.000000	59.891789
436.000000	59.797320
435.000000	59.711010
434.000000	59.662253
433.000000	59.561210
432.000000	59.448113
431.000000	59.315746
430.000000	59.197580
429.000000	59.045540
428.000000	58.969145
427.000000	58.876934
426.000000	58.746019
425.000000	58.600958
424.000000	58.454255
423.000000	58.256658
422.000000	58.121563
421.000000	57.971290
420.000000	57.889972
419.000000	57.750614
418.000000	57.527125
417.000000	57.410574
416.000000	57.213864
415.000000	57.130676
414.000000	56.980188
413.000000	56.787860
412.000000	56.605318
411.000000	56.475013
410.000000	56.241143
409.000000	56.074777
408.000000	55.861819
407.000000	55.743870
406.000000	55.464567
405.000000	55.298075
404.000000	55.120715
403.000000	54.925523
402.000000	54.754529
401.000000	54.431022
400.000000	54.320593
399.000000	54.117181
398.000000	53.961802
397.000000	53.679495
396.000000	53.463517
395.000000	53.249832
394.000000	52.989855
393.000000	52.769945
392.000000	52.540326
391.000000	52.267761
390.000000	52.020446
389.000000	51.647595
388.000000	51.487209
387.000000	51.176736
386.000000	50.927837
385.000000	50.585704
384.000000	50.375948
383.000000	49.921846
382.000000	49.573367
381.000000	49.309695
380.000000	48.942162
379.000000	48.559126
378.000000	48.103026
377.000000	47.571838
376.000000	46.860604
375.000000	46.542345
374.000000	45.746735
373.000000	45.084668
372.000000	44.270828
371.000000	43.375365
370.000000	42.417267
369.000000	41.280514
368.000000	40.009916
367.000000	38.592917
366.000000	36.966491
365.000000	35.216482
364.000000	33.199121
363.000000	31.020814
362.000000	28.690044
361.000000	26.133819
360.000000	23.484835
359.000000	20.743780
358.000000	17.948365
357.000000	15.089687
356.000000	12.361395
355.000000	9.769076
354.000000	7.446809
353.000000	5.418405
352.000000	3.752654
351.000000	2.445790
350.000000	1.510648
349.000000	0.858194
348.000000	0.450819
347.000000	0.215626
346.000000	0.098536
345.000000	0.047224
344.000000	0.029338
343.000000	0.020643
342.000000	0.022565
341.000000	0.022632
340.000000	0.020309
339.000000	0.013347
338.000000	0.017036
337.000000	0.020527
336.000000	0.027950
335.000000	0.022904
334.000000	0.027245
333.000000	0.023017
332.000000	0.019734
331.000000	0.021906
330.000000	0.024354
329.000000	0.024748
328.000000	0.035467
327.000000	0.031008
326.000000	0.026566
325.000000	0.029612
