PE UV       SUBTECH     SPECTRUM    ASCII       PEDS        4.00        
   -1
J37.Sample.Raw.asc
18/05/03
16:19:28.00
18/05/03
16:19:28.00
Administrator
longitudinal
325.000000
1
Lambda 850
850L1710193
PerkinElmer UV WinLab 6.4.0.973 / 2.02.06 Lambda 800 UV/VIS, Jan 28 2016 16:58:34

0
0
2
0
0
UV/VIS
1
1
1
RBeamAtt,SBeamAtt,60mm sphere
0
0
0
0
Fix
 
0
0.16
0
0
0
 
 
 
0
 
0
319.2
0
Front
100
 
S:100 R:100
 
0
0
0
 
0
 
 
 
0
 
 
0
0
0
0
0
 
 
 
 
0
0


0
0
#HDR
-1
-1
#GR
nm
%T
1.0
0.0
900.000000
-1.000000
576
8
80.148463
0.015003
#DATA
900.000000	71.352835
899.000000	80.148463
898.000000	77.985779
897.000000	74.970370
896.000000	76.751096
895.000000	75.105205
894.000000	72.348702
893.000000	76.549520
892.000000	73.548312
891.000000	71.948715
890.000000	73.909076
889.000000	73.057539
888.000000	72.292705
887.000000	75.331986
886.000000	73.711357
885.000000	71.934015
884.000000	74.549467
883.000000	75.283115
882.000000	73.413259
881.000000	72.528969
880.000000	73.764907
879.000000	72.329821
878.000000	73.741134
877.000000	74.736841
876.000000	72.837952
875.000000	75.815630
874.000000	73.994679
873.000000	74.805977
872.000000	73.770124
871.000000	72.741115
870.000000	72.898080
869.000000	72.828306
868.000000	73.539986
867.000000	73.466828
866.000000	74.034936
865.000000	72.953733
864.000000	73.851599
863.000000	73.000096
862.000000	73.180933
861.000000	73.185476
860.000000	72.082884
859.000000	73.391351
858.000000	73.412683
857.000000	73.415072
856.000000	73.529527
855.000000	73.647796
854.000000	72.972623
853.000000	72.694745
852.000000	72.879392
851.000000	72.819290
850.000000	73.279796
849.000000	73.220222
848.000000	73.708543
847.000000	73.178289
846.000000	72.966431
845.000000	72.840383
844.000000	72.842968
843.000000	72.334939
842.000000	72.474453
841.000000	72.659972
840.000000	72.528972
839.000000	72.735722
838.000000	72.508193
837.000000	72.157214
836.000000	72.236109
835.000000	72.341215
834.000000	72.674916
833.000000	72.797295
832.000000	72.659084
831.000000	72.451228
830.000000	72.305506
829.000000	72.423178
828.000000	72.409320
827.000000	72.148356
826.000000	72.063352
825.000000	72.107642
824.000000	72.294249
823.000000	72.093710
822.000000	72.166507
821.000000	71.935775
820.000000	71.721442
819.000000	71.819986
818.000000	71.954192
817.000000	71.763352
816.000000	71.728809
815.000000	71.680373
814.000000	71.640715
813.000000	71.894671
812.000000	71.778676
811.000000	71.814460
810.000000	71.737884
809.000000	71.783500
808.000000	71.795735
807.000000	71.731730
806.000000	71.627257
805.000000	71.663527
804.000000	71.754703
803.000000	71.773871
802.000000	71.713458
801.000000	71.656237
800.000000	71.550297
799.000000	71.381427
798.000000	71.523427
797.000000	71.634063
796.000000	71.558132
795.000000	71.570614
794.000000	71.678832
793.000000	71.765561
792.000000	71.809889
791.000000	71.730025
790.000000	71.646449
789.000000	71.579560
788.000000	71.623534
787.000000	71.783050
786.000000	71.698034
785.000000	71.602722
784.000000	71.480532
783.000000	71.464808
782.000000	71.570846
781.000000	71.486893
780.000000	71.446359
779.000000	71.508601
778.000000	71.557167
777.000000	71.493994
776.000000	71.425492
775.000000	71.401104
774.000000	71.308933
773.000000	71.336498
772.000000	71.417251
771.000000	71.375737
770.000000	71.357791
769.000000	71.442678
768.000000	71.420453
767.000000	71.264851
766.000000	71.259092
765.000000	71.184855
764.000000	71.126085
763.000000	71.167386
762.000000	71.213417
761.000000	71.179173
760.000000	71.129688
759.000000	71.099477
758.000000	71.037006
757.000000	70.975043
756.000000	71.038647
755.000000	71.138669
754.000000	71.042871
753.000000	70.978733
752.000000	70.918651
751.000000	70.943837
750.000000	70.924972
749.000000	70.889965
748.000000	70.961332
747.000000	70.949729
746.000000	70.965426
745.000000	70.953836
744.000000	70.862102
743.000000	70.863469
742.000000	70.884847
741.000000	70.825802
740.000000	70.728973
739.000000	70.756425
738.000000	70.714880
737.000000	70.705903
736.000000	70.740804
735.000000	70.684774
734.000000	70.569785
733.000000	70.531774
732.000000	70.589017
731.000000	70.758245
730.000000	70.676164
729.000000	70.694555
728.000000	70.681928
727.000000	70.645847
726.000000	70.458331
725.000000	70.500768
724.000000	70.568965
723.000000	70.491127
722.000000	70.462934
721.000000	70.491285
720.000000	70.511102
719.000000	70.486844
718.000000	70.419054
717.000000	70.445668
716.000000	70.484446
715.000000	70.414541
714.000000	70.384472
713.000000	70.506487
712.000000	70.434259
711.000000	70.382939
710.000000	70.369110
709.000000	70.404673
708.000000	70.428403
707.000000	70.344701
706.000000	70.269243
705.000000	70.246312
704.000000	70.204877
703.000000	70.237780
702.000000	70.222684
701.000000	70.208491
700.000000	70.109674
699.000000	70.136323
698.000000	70.132080
697.000000	70.144595
696.000000	70.146954
695.000000	70.055576
694.000000	70.072834
693.000000	69.967847
692.000000	69.984309
691.000000	69.850924
690.000000	69.915256
689.000000	69.849614
688.000000	69.874405
687.000000	69.822328
686.000000	69.758435
685.000000	69.854298
684.000000	69.810185
683.000000	69.800162
682.000000	69.803030
681.000000	69.662978
680.000000	69.568674
679.000000	69.676902
678.000000	69.598366
677.000000	69.564440
676.000000	69.581522
675.000000	69.579873
674.000000	69.550600
673.000000	69.583433
672.000000	69.506390
671.000000	69.451801
670.000000	69.441532
669.000000	69.513269
668.000000	69.399002
667.000000	69.432187
666.000000	69.388499
665.000000	69.347679
664.000000	69.325621
663.000000	69.233359
662.000000	69.258196
661.000000	69.262369
660.000000	69.216292
659.000000	69.157972
658.000000	69.201729
657.000000	69.086346
656.000000	69.001317
655.000000	68.933728
654.000000	69.085892
653.000000	68.982233
652.000000	69.012143
651.000000	69.000412
650.000000	68.949287
649.000000	68.863765
648.000000	68.830455
647.000000	68.797640
646.000000	68.760811
645.000000	68.743253
644.000000	68.636629
643.000000	68.723210
642.000000	68.642428
641.000000	68.579789
640.000000	68.528116
639.000000	68.515899
638.000000	68.502164
637.000000	68.472374
636.000000	68.411385
635.000000	68.317714
634.000000	68.332122
633.000000	68.300058
632.000000	68.251186
631.000000	68.185903
630.000000	68.206269
629.000000	68.179456
628.000000	68.131591
627.000000	68.012296
626.000000	68.029316
625.000000	67.995832
624.000000	67.939167
623.000000	67.880691
622.000000	67.894625
621.000000	67.868453
620.000000	67.776337
619.000000	67.691139
618.000000	67.688376
617.000000	67.656718
616.000000	67.563919
615.000000	67.536802
614.000000	67.585797
613.000000	67.535278
612.000000	67.424360
611.000000	67.424025
610.000000	67.364560
609.000000	67.307394
608.000000	67.300945
607.000000	67.182928
606.000000	67.143787
605.000000	67.127537
604.000000	67.131273
603.000000	67.002462
602.000000	67.033464
601.000000	67.035820
600.000000	66.990396
599.000000	66.878504
598.000000	66.866267
597.000000	66.772335
596.000000	66.743238
595.000000	66.736729
594.000000	66.700997
593.000000	66.641206
592.000000	66.556632
591.000000	66.523197
590.000000	66.462574
589.000000	66.402109
588.000000	66.362092
587.000000	66.368532
586.000000	66.295911
585.000000	66.279933
584.000000	66.250958
583.000000	66.138554
582.000000	66.125768
581.000000	66.112190
580.000000	66.059059
579.000000	65.974048
578.000000	65.918069
577.000000	65.864197
576.000000	65.804889
575.000000	65.776040
574.000000	65.734603
573.000000	65.722277
572.000000	65.681085
571.000000	65.608915
570.000000	65.572114
569.000000	65.527261
568.000000	65.458167
567.000000	65.430012
566.000000	65.394399
565.000000	65.372388
564.000000	65.318020
563.000000	65.274816
562.000000	65.219615
561.000000	65.136795
560.000000	65.150378
559.000000	65.083681
558.000000	65.013080
557.000000	64.936617
556.000000	64.929370
555.000000	64.867723
554.000000	64.872516
553.000000	64.874593
552.000000	64.831876
551.000000	64.766601
550.000000	64.744388
549.000000	64.673059
548.000000	64.599746
547.000000	64.543690
546.000000	64.506561
545.000000	64.506299
544.000000	64.440415
543.000000	64.355120
542.000000	64.357625
541.000000	64.329923
540.000000	64.301172
539.000000	64.238635
538.000000	64.171288
537.000000	64.125537
536.000000	64.094979
535.000000	64.027582
534.000000	63.977227
533.000000	63.949388
532.000000	63.945965
531.000000	63.910034
530.000000	63.850485
529.000000	63.829275
528.000000	63.777045
527.000000	63.717999
526.000000	63.670282
525.000000	63.617575
524.000000	63.570051
523.000000	63.546738
522.000000	63.490074
521.000000	63.429841
520.000000	63.404216
519.000000	63.367043
518.000000	63.339547
517.000000	63.298867
516.000000	63.253634
515.000000	63.212428
514.000000	63.163110
513.000000	63.123816
512.000000	63.072049
511.000000	63.016280
510.000000	62.976563
509.000000	62.951509
508.000000	62.925197
507.000000	62.870000
506.000000	62.814527
505.000000	62.781103
504.000000	62.733637
503.000000	62.682773
502.000000	62.641904
501.000000	62.607469
500.000000	62.542771
499.000000	62.489385
498.000000	62.434319
497.000000	62.395568
496.000000	62.358891
495.000000	62.296745
494.000000	62.253305
493.000000	62.195507
492.000000	62.126331
491.000000	62.086924
490.000000	62.027897
489.000000	61.974076
488.000000	61.927785
487.000000	61.909378
486.000000	61.832651
485.000000	61.766808
484.000000	61.705674
483.000000	61.653972
482.000000	61.602208
481.000000	61.564208
480.000000	61.559214
479.000000	61.517784
478.000000	61.436480
477.000000	61.395407
476.000000	61.346765
475.000000	61.285469
474.000000	61.207267
473.000000	61.141993
472.000000	61.095633
471.000000	61.022818
470.000000	60.940089
469.000000	60.890842
468.000000	60.874413
467.000000	60.810016
466.000000	60.723192
465.000000	60.654169
464.000000	60.592071
463.000000	60.540035
462.000000	60.472208
461.000000	60.408686
460.000000	60.341793
459.000000	60.261571
458.000000	60.155048
457.000000	60.063060
456.000000	60.036994
455.000000	59.932183
454.000000	59.808849
453.000000	59.712343
452.000000	59.690130
451.000000	59.568821
450.000000	59.456505
449.000000	59.408938
448.000000	59.249050
447.000000	59.144875
446.000000	59.056090
445.000000	58.975059
444.000000	58.899016
443.000000	58.753983
442.000000	58.615132
441.000000	58.510329
440.000000	58.444218
439.000000	58.343808
438.000000	58.174920
437.000000	58.095969
436.000000	58.015442
435.000000	57.855927
434.000000	57.758275
433.000000	57.625856
432.000000	57.483779
431.000000	57.345408
430.000000	57.252044
429.000000	57.163904
428.000000	57.024141
427.000000	56.917733
426.000000	56.719162
425.000000	56.592930
424.000000	56.444988
423.000000	56.270983
422.000000	56.066663
421.000000	55.991011
420.000000	55.839750
419.000000	55.677505
418.000000	55.496680
417.000000	55.267663
416.000000	55.146994
415.000000	54.949836
414.000000	54.850730
413.000000	54.604970
412.000000	54.439039
411.000000	54.247613
410.000000	54.179176
409.000000	54.014157
408.000000	53.746264
407.000000	53.530977
406.000000	53.292575
405.000000	53.197967
404.000000	53.032880
403.000000	52.752955
402.000000	52.515806
401.000000	52.354419
400.000000	52.126299
399.000000	51.894626
398.000000	51.731621
397.000000	51.562116
396.000000	51.262770
395.000000	51.074346
394.000000	50.720709
393.000000	50.572227
392.000000	50.275872
391.000000	49.981135
390.000000	49.832448
389.000000	49.514086
388.000000	49.324176
387.000000	48.990070
386.000000	48.759106
385.000000	48.394889
384.000000	48.177532
383.000000	47.830848
382.000000	47.448157
381.000000	47.147298
380.000000	46.767681
379.000000	46.424200
378.000000	45.877803
377.000000	45.384767
376.000000	44.904060
375.000000	44.328265
374.000000	43.635365
373.000000	42.964109
372.000000	42.119441
371.000000	41.327214
370.000000	40.403572
369.000000	39.349964
368.000000	38.200558
367.000000	36.877197
366.000000	35.285261
365.000000	33.600243
364.000000	31.652774
363.000000	29.630597
362.000000	27.414657
361.000000	24.975988
360.000000	22.435060
359.000000	19.853056
358.000000	17.192393
357.000000	14.500575
356.000000	11.888877
355.000000	9.419071
354.000000	7.201965
353.000000	5.262169
352.000000	3.649316
351.000000	2.385311
350.000000	1.483547
349.000000	0.856945
348.000000	0.456017
347.000000	0.229584
346.000000	0.108072
345.000000	0.040464
344.000000	0.020363
343.000000	0.019389
342.000000	0.022951
341.000000	0.019730
340.000000	0.022050
339.000000	0.019924
338.000000	0.015003
337.000000	0.018881
336.000000	0.020865
335.000000	0.022904
334.000000	0.021137
333.000000	0.018064
332.000000	0.021192
331.000000	0.018693
330.000000	0.022698
329.000000	0.033517
328.000000	0.028939
327.000000	0.035201
326.000000	0.039361
325.000000	0.039776
