PE UV       SUBTECH     SPECTRUM    ASCII       PEDS        4.00        
   -1
J38.Sample.Raw.asc
18/05/03
16:24:38.00
18/05/03
16:24:38.00
Administrator
longitudinal
325.000000
1
Lambda 850
850L1710193
PerkinElmer UV WinLab 6.4.0.973 / 2.02.06 Lambda 800 UV/VIS, Jan 28 2016 16:58:34

0
0
2
0
0
UV/VIS
1
1
1
RBeamAtt,SBeamAtt,60mm sphere
0
0
0
0
Fix
 
0
0.16
0
0
0
 
 
 
0
 
0
319.2
0
Front
100
 
S:100 R:100
 
0
0
0
 
0
 
 
 
0
 
 
0
0
0
0
0
 
 
 
 
0
0


0
0
#HDR
-1
-1
#GR
nm
%T
1.0
0.0
900.000000
-1.000000
576
8
78.812603
0.011325
#DATA
900.000000	73.914358
899.000000	74.239923
898.000000	73.875455
897.000000	69.551816
896.000000	78.812603
895.000000	68.098291
894.000000	70.822716
893.000000	72.199368
892.000000	71.607802
891.000000	71.054498
890.000000	73.596456
889.000000	73.966205
888.000000	73.273719
887.000000	72.943501
886.000000	73.628514
885.000000	73.824336
884.000000	74.529566
883.000000	72.716868
882.000000	73.466811
881.000000	73.085073
880.000000	72.658645
879.000000	73.263253
878.000000	72.378191
877.000000	73.858375
876.000000	73.701937
875.000000	74.614323
874.000000	72.857060
873.000000	73.873863
872.000000	72.880224
871.000000	72.369247
870.000000	72.243623
869.000000	72.631977
868.000000	73.254358
867.000000	73.451917
866.000000	73.600091
865.000000	73.314880
864.000000	73.213728
863.000000	72.554045
862.000000	72.767820
861.000000	72.541783
860.000000	71.580845
859.000000	73.210260
858.000000	73.520467
857.000000	73.144436
856.000000	72.616324
855.000000	72.490268
854.000000	72.502307
853.000000	72.464302
852.000000	72.506396
851.000000	72.316959
850.000000	72.775309
849.000000	72.528305
848.000000	72.673319
847.000000	72.680385
846.000000	72.401781
845.000000	72.302479
844.000000	72.278729
843.000000	72.104252
842.000000	71.801891
841.000000	72.168598
840.000000	72.174609
839.000000	71.923293
838.000000	71.592782
837.000000	71.652071
836.000000	71.699338
835.000000	71.747045
834.000000	71.633346
833.000000	72.025202
832.000000	71.789599
831.000000	71.539542
830.000000	71.523238
829.000000	71.563398
828.000000	71.576145
827.000000	71.501759
826.000000	71.165261
825.000000	71.156307
824.000000	71.198722
823.000000	71.228639
822.000000	71.173171
821.000000	71.203468
820.000000	70.962590
819.000000	71.184829
818.000000	71.183771
817.000000	70.854095
816.000000	70.705090
815.000000	70.742540
814.000000	70.889107
813.000000	71.051453
812.000000	70.888535
811.000000	70.515791
810.000000	70.615734
809.000000	70.848060
808.000000	70.707119
807.000000	70.712435
806.000000	70.685297
805.000000	70.740928
804.000000	70.774642
803.000000	70.666339
802.000000	70.462373
801.000000	70.444197
800.000000	70.484128
799.000000	70.582216
798.000000	70.567179
797.000000	70.438860
796.000000	70.404348
795.000000	70.302342
794.000000	70.384314
793.000000	70.578355
792.000000	70.634269
791.000000	70.493908
790.000000	70.324507
789.000000	70.205861
788.000000	70.304366
787.000000	70.367242
786.000000	70.288881
785.000000	70.187898
784.000000	70.047373
783.000000	70.146669
782.000000	70.139811
781.000000	69.977729
780.000000	70.034365
779.000000	70.056021
778.000000	69.991532
777.000000	69.866602
776.000000	69.805999
775.000000	69.798560
774.000000	69.665334
773.000000	69.799736
772.000000	69.888180
771.000000	69.820068
770.000000	69.845378
769.000000	69.759053
768.000000	69.747461
767.000000	69.685652
766.000000	69.514860
765.000000	69.493259
764.000000	69.577436
763.000000	69.477824
762.000000	69.479309
761.000000	69.499522
760.000000	69.453070
759.000000	69.371925
758.000000	69.315971
757.000000	69.339740
756.000000	69.338757
755.000000	69.312233
754.000000	69.153576
753.000000	69.134342
752.000000	69.073719
751.000000	69.037928
750.000000	69.072061
749.000000	69.081150
748.000000	69.050408
747.000000	68.977896
746.000000	69.043582
745.000000	69.094381
744.000000	68.835014
743.000000	68.819499
742.000000	68.822866
741.000000	68.851611
740.000000	68.799170
739.000000	68.715551
738.000000	68.663309
737.000000	68.704346
736.000000	68.738216
735.000000	68.742863
734.000000	68.576565
733.000000	68.505903
732.000000	68.587399
731.000000	68.615064
730.000000	68.509300
729.000000	68.468748
728.000000	68.553674
727.000000	68.559233
726.000000	68.333517
725.000000	68.440298
724.000000	68.458234
723.000000	68.413806
722.000000	68.314236
721.000000	68.335930
720.000000	68.211121
719.000000	68.251731
718.000000	68.241915
717.000000	68.162492
716.000000	68.178752
715.000000	68.085000
714.000000	68.112896
713.000000	68.114928
712.000000	68.200946
711.000000	68.172592
710.000000	68.128154
709.000000	68.088639
708.000000	68.131457
707.000000	68.059332
706.000000	67.917374
705.000000	67.930122
704.000000	67.889370
703.000000	67.785227
702.000000	67.839527
701.000000	67.800805
700.000000	67.744471
699.000000	67.766147
698.000000	67.780480
697.000000	67.689622
696.000000	67.779727
695.000000	67.685707
694.000000	67.629989
693.000000	67.543262
692.000000	67.677757
691.000000	67.591530
690.000000	67.455457
689.000000	67.527646
688.000000	67.411284
687.000000	67.316489
686.000000	67.297847
685.000000	67.343956
684.000000	67.305198
683.000000	67.258085
682.000000	67.226023
681.000000	67.159662
680.000000	67.074960
679.000000	67.110318
678.000000	66.968133
677.000000	66.902124
676.000000	66.915339
675.000000	66.851346
674.000000	66.780295
673.000000	66.837854
672.000000	66.753603
671.000000	66.727270
670.000000	66.765862
669.000000	66.707117
668.000000	66.569199
667.000000	66.560712
666.000000	66.454968
665.000000	66.409275
664.000000	66.389429
663.000000	66.281715
662.000000	66.279996
661.000000	66.222358
660.000000	66.176615
659.000000	66.025346
658.000000	66.060405
657.000000	65.987837
656.000000	65.846548
655.000000	65.861127
654.000000	65.840046
653.000000	65.711784
652.000000	65.638084
651.000000	65.570443
650.000000	65.570314
649.000000	65.411107
648.000000	65.377494
647.000000	65.332184
646.000000	65.230290
645.000000	65.143435
644.000000	65.083962
643.000000	65.055343
642.000000	64.977981
641.000000	64.885394
640.000000	64.762916
639.000000	64.679477
638.000000	64.592050
637.000000	64.582685
636.000000	64.463605
635.000000	64.384221
634.000000	64.276008
633.000000	64.215153
632.000000	64.131761
631.000000	64.063238
630.000000	64.000035
629.000000	63.981384
628.000000	63.903882
627.000000	63.695969
626.000000	63.694183
625.000000	63.501900
624.000000	63.408776
623.000000	63.425896
622.000000	63.326239
621.000000	63.254387
620.000000	63.127585
619.000000	63.003669
618.000000	62.961854
617.000000	62.870011
616.000000	62.761367
615.000000	62.614764
614.000000	62.544568
613.000000	62.508263
612.000000	62.386143
611.000000	62.287343
610.000000	62.197643
609.000000	62.123201
608.000000	62.075486
607.000000	61.899245
606.000000	61.777318
605.000000	61.733879
604.000000	61.658862
603.000000	61.515273
602.000000	61.474472
601.000000	61.404131
600.000000	61.297728
599.000000	61.134723
598.000000	61.077333
597.000000	60.996521
596.000000	60.873557
595.000000	60.816026
594.000000	60.730827
593.000000	60.675559
592.000000	60.511200
591.000000	60.362041
590.000000	60.290280
589.000000	60.247364
588.000000	60.129423
587.000000	60.050019
586.000000	59.941069
585.000000	59.866922
584.000000	59.770595
583.000000	59.704900
582.000000	59.594142
581.000000	59.505187
580.000000	59.443973
579.000000	59.341713
578.000000	59.245733
577.000000	59.124258
576.000000	59.009550
575.000000	58.957135
574.000000	58.856900
573.000000	58.763064
572.000000	58.692639
571.000000	58.582653
570.000000	58.531247
569.000000	58.436389
568.000000	58.346309
567.000000	58.254757
566.000000	58.188476
565.000000	58.088066
564.000000	57.992137
563.000000	57.904069
562.000000	57.847861
561.000000	57.715059
560.000000	57.710436
559.000000	57.616009
558.000000	57.509011
557.000000	57.426202
556.000000	57.348644
555.000000	57.270493
554.000000	57.205020
553.000000	57.135483
552.000000	57.067211
551.000000	56.970825
550.000000	56.923877
549.000000	56.827574
548.000000	56.722816
547.000000	56.654642
546.000000	56.573460
545.000000	56.486958
544.000000	56.419113
543.000000	56.338982
542.000000	56.309797
541.000000	56.256323
540.000000	56.176552
539.000000	56.114713
538.000000	56.024827
537.000000	55.947353
536.000000	55.893677
535.000000	55.822220
534.000000	55.760444
533.000000	55.686117
532.000000	55.618553
531.000000	55.564981
530.000000	55.506358
529.000000	55.439026
528.000000	55.380282
527.000000	55.313411
526.000000	55.236594
525.000000	55.179543
524.000000	55.129174
523.000000	55.080299
522.000000	55.020234
521.000000	54.964448
520.000000	54.927492
519.000000	54.866512
518.000000	54.803264
517.000000	54.738945
516.000000	54.677945
515.000000	54.636596
514.000000	54.588309
513.000000	54.527210
512.000000	54.489291
511.000000	54.439362
510.000000	54.368387
509.000000	54.323849
508.000000	54.274357
507.000000	54.217691
506.000000	54.172584
505.000000	54.125469
504.000000	54.075106
503.000000	54.014154
502.000000	53.971176
501.000000	53.930566
500.000000	53.872707
499.000000	53.834895
498.000000	53.775562
497.000000	53.703727
496.000000	53.638678
495.000000	53.558707
494.000000	53.521943
493.000000	53.485913
492.000000	53.418368
491.000000	53.330907
490.000000	53.285379
489.000000	53.229451
488.000000	53.179141
487.000000	53.147054
486.000000	53.069632
485.000000	53.028657
484.000000	53.003930
483.000000	52.937104
482.000000	52.871112
481.000000	52.860231
480.000000	52.830230
479.000000	52.797133
478.000000	52.779911
477.000000	52.694391
476.000000	52.654320
475.000000	52.620061
474.000000	52.530052
473.000000	52.486545
472.000000	52.504451
471.000000	52.455122
470.000000	52.367699
469.000000	52.340350
468.000000	52.314657
467.000000	52.258234
466.000000	52.198192
465.000000	52.160330
464.000000	52.114885
463.000000	52.089881
462.000000	52.018980
461.000000	51.970728
460.000000	51.873076
459.000000	51.795318
458.000000	51.747973
457.000000	51.673546
456.000000	51.636395
455.000000	51.574486
454.000000	51.464256
453.000000	51.414813
452.000000	51.380778
451.000000	51.310231
450.000000	51.195838
449.000000	51.180332
448.000000	51.034255
447.000000	50.947232
446.000000	50.929547
445.000000	50.849610
444.000000	50.782238
443.000000	50.649879
442.000000	50.586659
441.000000	50.565238
440.000000	50.450203
439.000000	50.361789
438.000000	50.266962
437.000000	50.187299
436.000000	50.106969
435.000000	50.012883
434.000000	49.966459
433.000000	49.880099
432.000000	49.826371
431.000000	49.709574
430.000000	49.592973
429.000000	49.502095
428.000000	49.443137
427.000000	49.355815
426.000000	49.227229
425.000000	49.179172
424.000000	49.063986
423.000000	48.937982
422.000000	48.821544
421.000000	48.665758
420.000000	48.606196
419.000000	48.515758
418.000000	48.360835
417.000000	48.268051
416.000000	48.123921
415.000000	48.007883
414.000000	47.927933
413.000000	47.826032
412.000000	47.665868
411.000000	47.554697
410.000000	47.419021
409.000000	47.380250
408.000000	47.150155
407.000000	47.038838
406.000000	46.775962
405.000000	46.688361
404.000000	46.537065
403.000000	46.414214
402.000000	46.220502
401.000000	46.095609
400.000000	45.984365
399.000000	45.776238
398.000000	45.629219
397.000000	45.507416
396.000000	45.265894
395.000000	45.093206
394.000000	44.948772
393.000000	44.784891
392.000000	44.597248
391.000000	44.379120
390.000000	44.215144
389.000000	43.930796
388.000000	43.748239
387.000000	43.555870
386.000000	43.348941
385.000000	43.142073
384.000000	42.980433
383.000000	42.730581
382.000000	42.455344
381.000000	42.254854
380.000000	42.067895
379.000000	41.867641
378.000000	41.320228
377.000000	41.124646
376.000000	40.746356
375.000000	40.490356
374.000000	40.137861
373.000000	39.655523
372.000000	39.266271
371.000000	38.767593
370.000000	38.234141
369.000000	37.645913
368.000000	37.035574
367.000000	36.307128
366.000000	35.509069
365.000000	34.438064
364.000000	33.263036
363.000000	32.076960
362.000000	30.658449
361.000000	29.136534
360.000000	27.478621
359.000000	25.668090
358.000000	23.694914
357.000000	21.553949
356.000000	19.313075
355.000000	17.000331
354.000000	14.604152
353.000000	12.253474
352.000000	10.032040
351.000000	7.914372
350.000000	6.009820
349.000000	4.374887
348.000000	3.023108
347.000000	1.963544
346.000000	1.175502
345.000000	0.655925
344.000000	0.336613
343.000000	0.162636
342.000000	0.083895
341.000000	0.042653
340.000000	0.021953
339.000000	0.012380
338.000000	0.011325
337.000000	0.023431
336.000000	0.023777
335.000000	0.023389
334.000000	0.023657
333.000000	0.027291
332.000000	0.020900
331.000000	0.025509
330.000000	0.032439
329.000000	0.030594
328.000000	0.034883
327.000000	0.035299
326.000000	0.041412
325.000000	0.034987
