PE UV       SUBTECH     SPECTRUM    ASCII       PEDS        4.00        
   -1
J44.Sample.Raw.asc
18/05/03
16:34:44.00
18/05/03
16:34:44.00
Administrator
longitudinal
325.000000
1
Lambda 850
850L1710193
PerkinElmer UV WinLab 6.4.0.973 / 2.02.06 Lambda 800 UV/VIS, Jan 28 2016 16:58:34

0
0
2
0
0
UV/VIS
1
1
1
RBeamAtt,SBeamAtt,60mm sphere
0
0
0
0
Fix
 
0
0.16
0
0
0
 
 
 
0
 
0
319.2
0
Front
100
 
S:100 R:100
 
0
0
0
 
0
 
 
 
0
 
 
0
0
0
0
0
 
 
 
 
0
0


0
0
#HDR
-1
-1
#GR
nm
%T
1.0
0.0
900.000000
-1.000000
576
8
77.393122
0.014023
#DATA
900.000000	72.853066
899.000000	73.341113
898.000000	76.686389
897.000000	73.859990
896.000000	77.393122
895.000000	74.572126
894.000000	72.284587
893.000000	76.057752
892.000000	74.156208
891.000000	71.589031
890.000000	73.383597
889.000000	74.322797
888.000000	74.769762
887.000000	76.680841
886.000000	75.674970
885.000000	75.171788
884.000000	74.787489
883.000000	74.769035
882.000000	74.638260
881.000000	73.856876
880.000000	75.055953
879.000000	74.311435
878.000000	74.688727
877.000000	75.924221
876.000000	73.901284
875.000000	74.418874
874.000000	73.765630
873.000000	74.985283
872.000000	74.821912
871.000000	73.932038
870.000000	74.208883
869.000000	73.711704
868.000000	73.923724
867.000000	74.385124
866.000000	74.234462
865.000000	73.950070
864.000000	74.590981
863.000000	74.365661
862.000000	74.410270
861.000000	73.935672
860.000000	73.382905
859.000000	74.884372
858.000000	74.747018
857.000000	74.196075
856.000000	73.660179
855.000000	73.683477
854.000000	73.848003
853.000000	73.707915
852.000000	73.609701
851.000000	73.664516
850.000000	73.786149
849.000000	73.588622
848.000000	73.983480
847.000000	73.789010
846.000000	73.941758
845.000000	73.599613
844.000000	73.553826
843.000000	73.070749
842.000000	73.011194
841.000000	73.442382
840.000000	73.391816
839.000000	73.294909
838.000000	73.057775
837.000000	73.079355
836.000000	73.322245
835.000000	73.227084
834.000000	72.941781
833.000000	72.999127
832.000000	73.072860
831.000000	73.051408
830.000000	72.822154
829.000000	72.868483
828.000000	72.981108
827.000000	72.644396
826.000000	72.415783
825.000000	72.465534
824.000000	72.659062
823.000000	72.738204
822.000000	72.662589
821.000000	72.657533
820.000000	72.543288
819.000000	72.551430
818.000000	72.735091
817.000000	72.580714
816.000000	72.360426
815.000000	72.281620
814.000000	72.277803
813.000000	72.492593
812.000000	72.439755
811.000000	72.281895
810.000000	72.348603
809.000000	72.474013
808.000000	72.420578
807.000000	72.442056
806.000000	72.312654
805.000000	72.329062
804.000000	72.357675
803.000000	72.372505
802.000000	72.295448
801.000000	72.368985
800.000000	72.458813
799.000000	72.203767
798.000000	72.097880
797.000000	72.290502
796.000000	72.161152
795.000000	72.027961
794.000000	72.210252
793.000000	72.178912
792.000000	72.328651
791.000000	72.314304
790.000000	72.247883
789.000000	72.213121
788.000000	72.199770
787.000000	72.240037
786.000000	72.228753
785.000000	72.183868
784.000000	71.928994
783.000000	71.943526
782.000000	71.955388
781.000000	71.873225
780.000000	72.048315
779.000000	72.083852
778.000000	72.032139
777.000000	72.048373
776.000000	72.050715
775.000000	71.917641
774.000000	71.655154
773.000000	71.783596
772.000000	71.951858
771.000000	71.854150
770.000000	71.878678
769.000000	71.938196
768.000000	71.892114
767.000000	71.701144
766.000000	71.558754
765.000000	71.650171
764.000000	71.659192
763.000000	71.650870
762.000000	71.754397
761.000000	71.803070
760.000000	71.761916
759.000000	71.678727
758.000000	71.612610
757.000000	71.611547
756.000000	71.595093
755.000000	71.528673
754.000000	71.477716
753.000000	71.476407
752.000000	71.398619
751.000000	71.274314
750.000000	71.432590
749.000000	71.460940
748.000000	71.430680
747.000000	71.477475
746.000000	71.414287
745.000000	71.495204
744.000000	71.477340
743.000000	71.351256
742.000000	71.312039
741.000000	71.377477
740.000000	71.250456
739.000000	71.166669
738.000000	71.227366
737.000000	71.197733
736.000000	71.252357
735.000000	71.168239
734.000000	71.060899
733.000000	71.035587
732.000000	71.119336
731.000000	71.143147
730.000000	71.088214
729.000000	71.118338
728.000000	71.065063
727.000000	71.085912
726.000000	70.928719
725.000000	71.025539
724.000000	71.029693
723.000000	71.028882
722.000000	70.961625
721.000000	70.989973
720.000000	70.925837
719.000000	71.006481
718.000000	70.935662
717.000000	70.860690
716.000000	70.828749
715.000000	70.824050
714.000000	70.787021
713.000000	70.840522
712.000000	70.788768
711.000000	70.836047
710.000000	70.865420
709.000000	70.803048
708.000000	70.765055
707.000000	70.701167
706.000000	70.699479
705.000000	70.769136
704.000000	70.614181
703.000000	70.650673
702.000000	70.586837
701.000000	70.655362
700.000000	70.624322
699.000000	70.600282
698.000000	70.604443
697.000000	70.573992
696.000000	70.592548
695.000000	70.463649
694.000000	70.495352
693.000000	70.470676
692.000000	70.502107
691.000000	70.346198
690.000000	70.364108
689.000000	70.317301
688.000000	70.340394
687.000000	70.242510
686.000000	70.147724
685.000000	70.274221
684.000000	70.262663
683.000000	70.292924
682.000000	70.289052
681.000000	70.147647
680.000000	70.032425
679.000000	70.123563
678.000000	70.110268
677.000000	70.013090
676.000000	69.966076
675.000000	69.985160
674.000000	69.887058
673.000000	69.923491
672.000000	69.836332
671.000000	69.808471
670.000000	69.878218
669.000000	69.879239
668.000000	69.780585
667.000000	69.802086
666.000000	69.735365
665.000000	69.624437
664.000000	69.656217
663.000000	69.585514
662.000000	69.506111
661.000000	69.530086
660.000000	69.603230
659.000000	69.514967
658.000000	69.503205
657.000000	69.424004
656.000000	69.378259
655.000000	69.367944
654.000000	69.391135
653.000000	69.209488
652.000000	69.240055
651.000000	69.255795
650.000000	69.221210
649.000000	69.148240
648.000000	69.126742
647.000000	69.081289
646.000000	69.016916
645.000000	69.004092
644.000000	68.893532
643.000000	68.911612
642.000000	68.837448
641.000000	68.812004
640.000000	68.760975
639.000000	68.777057
638.000000	68.668541
637.000000	68.610652
636.000000	68.569911
635.000000	68.525678
634.000000	68.499544
633.000000	68.401203
632.000000	68.327810
631.000000	68.345038
630.000000	68.319027
629.000000	68.317237
628.000000	68.252298
627.000000	68.111440
626.000000	68.151028
625.000000	68.027998
624.000000	67.952195
623.000000	67.985877
622.000000	67.918070
621.000000	67.873528
620.000000	67.811772
619.000000	67.799892
618.000000	67.781847
617.000000	67.733811
616.000000	67.571618
615.000000	67.583609
614.000000	67.559892
613.000000	67.485722
612.000000	67.417095
611.000000	67.349958
610.000000	67.331115
609.000000	67.231656
608.000000	67.260742
607.000000	67.112318
606.000000	67.047436
605.000000	67.073069
604.000000	67.046104
603.000000	66.914669
602.000000	66.927542
601.000000	66.865704
600.000000	66.845682
599.000000	66.699019
598.000000	66.663337
597.000000	66.636088
596.000000	66.536303
595.000000	66.515586
594.000000	66.449085
593.000000	66.454067
592.000000	66.330722
591.000000	66.264409
590.000000	66.197177
589.000000	66.130191
588.000000	66.037308
587.000000	66.106513
586.000000	65.980926
585.000000	65.930015
584.000000	65.869755
583.000000	65.830537
582.000000	65.760105
581.000000	65.718355
580.000000	65.698949
579.000000	65.622199
578.000000	65.594148
577.000000	65.490389
576.000000	65.428421
575.000000	65.362144
574.000000	65.336949
573.000000	65.302308
572.000000	65.247683
571.000000	65.179206
570.000000	65.136269
569.000000	65.091356
568.000000	64.994284
567.000000	64.944263
566.000000	64.946539
565.000000	64.889193
564.000000	64.802300
563.000000	64.737461
562.000000	64.720953
561.000000	64.642952
560.000000	64.598451
559.000000	64.554133
558.000000	64.471515
557.000000	64.404931
556.000000	64.349406
555.000000	64.302231
554.000000	64.307116
553.000000	64.252241
552.000000	64.227620
551.000000	64.173939
550.000000	64.153836
549.000000	64.049289
548.000000	63.961655
547.000000	63.909856
546.000000	63.885463
545.000000	63.862934
544.000000	63.801514
543.000000	63.726350
542.000000	63.695988
541.000000	63.627476
540.000000	63.592537
539.000000	63.540482
538.000000	63.487738
537.000000	63.446640
536.000000	63.411522
535.000000	63.362191
534.000000	63.301559
533.000000	63.235256
532.000000	63.185171
531.000000	63.161538
530.000000	63.123829
529.000000	63.085009
528.000000	63.037671
527.000000	62.961521
526.000000	62.893968
525.000000	62.857319
524.000000	62.836167
523.000000	62.789716
522.000000	62.728736
521.000000	62.678859
520.000000	62.651196
519.000000	62.611806
518.000000	62.559326
517.000000	62.486283
516.000000	62.451733
515.000000	62.448603
514.000000	62.392724
513.000000	62.327271
512.000000	62.298424
511.000000	62.251820
510.000000	62.192430
509.000000	62.154920
508.000000	62.128353
507.000000	62.088797
506.000000	62.039913
505.000000	62.002238
504.000000	61.960570
503.000000	61.892919
502.000000	61.847464
501.000000	61.817287
500.000000	61.767341
499.000000	61.735522
498.000000	61.674289
497.000000	61.591314
496.000000	61.519831
495.000000	61.429004
494.000000	61.389380
493.000000	61.385832
492.000000	61.300474
491.000000	61.236511
490.000000	61.174181
489.000000	61.116897
488.000000	61.069837
487.000000	61.030603
486.000000	60.965504
485.000000	60.956158
484.000000	60.885012
483.000000	60.804055
482.000000	60.754052
481.000000	60.721056
480.000000	60.671364
479.000000	60.643762
478.000000	60.598781
477.000000	60.552626
476.000000	60.480400
475.000000	60.442606
474.000000	60.359935
473.000000	60.300964
472.000000	60.272625
471.000000	60.202342
470.000000	60.118339
469.000000	60.076338
468.000000	60.033223
467.000000	59.984565
466.000000	59.942064
465.000000	59.863813
464.000000	59.796138
463.000000	59.735053
462.000000	59.696899
461.000000	59.637042
460.000000	59.537996
459.000000	59.473720
458.000000	59.386816
457.000000	59.316649
456.000000	59.259822
455.000000	59.193422
454.000000	59.073525
453.000000	58.964888
452.000000	58.936187
451.000000	58.836018
450.000000	58.746526
449.000000	58.655534
448.000000	58.530809
447.000000	58.432611
446.000000	58.359096
445.000000	58.308956
444.000000	58.195510
443.000000	58.099464
442.000000	57.957211
441.000000	57.890650
440.000000	57.813509
439.000000	57.739292
438.000000	57.655955
437.000000	57.482967
436.000000	57.395666
435.000000	57.314303
434.000000	57.233232
433.000000	57.106535
432.000000	57.074698
431.000000	56.926373
430.000000	56.771912
429.000000	56.700458
428.000000	56.632602
427.000000	56.490881
426.000000	56.303471
425.000000	56.223802
424.000000	56.110599
423.000000	55.964668
422.000000	55.790425
421.000000	55.701086
420.000000	55.553004
419.000000	55.411717
418.000000	55.247032
417.000000	55.126260
416.000000	54.971607
415.000000	54.810405
414.000000	54.708999
413.000000	54.579594
412.000000	54.380991
411.000000	54.224377
410.000000	54.087920
409.000000	53.971269
408.000000	53.718457
407.000000	53.563481
406.000000	53.366020
405.000000	53.199791
404.000000	52.965592
403.000000	52.799621
402.000000	52.618151
401.000000	52.427614
400.000000	52.295823
399.000000	52.044782
398.000000	51.866896
397.000000	51.668297
396.000000	51.426981
395.000000	51.258453
394.000000	50.993160
393.000000	50.807315
392.000000	50.551650
391.000000	50.294428
390.000000	50.042135
389.000000	49.774933
388.000000	49.587381
387.000000	49.290792
386.000000	49.094450
385.000000	48.678010
384.000000	48.481773
383.000000	48.063654
382.000000	47.833225
381.000000	47.460449
380.000000	47.118129
379.000000	46.877689
378.000000	46.341060
377.000000	45.882943
376.000000	45.307599
375.000000	44.991511
374.000000	44.332853
373.000000	43.781666
372.000000	43.063704
371.000000	42.345524
370.000000	41.584772
369.000000	40.585937
368.000000	39.605853
367.000000	38.446526
366.000000	37.121918
365.000000	35.611317
364.000000	33.869135
363.000000	32.048279
362.000000	30.113791
361.000000	27.900718
360.000000	25.557537
359.000000	23.094571
358.000000	20.518648
357.000000	17.804467
356.000000	15.183185
355.000000	12.546111
354.000000	10.033993
353.000000	7.765773
352.000000	5.760773
351.000000	4.077951
350.000000	2.735869
349.000000	1.720714
348.000000	1.019637
347.000000	0.558895
346.000000	0.271144
345.000000	0.131629
344.000000	0.063211
343.000000	0.032411
342.000000	0.025072
341.000000	0.023309
340.000000	0.014023
339.000000	0.014798
338.000000	0.016649
337.000000	0.020623
336.000000	0.026009
335.000000	0.021060
334.000000	0.019779
333.000000	0.030981
332.000000	0.035384
331.000000	0.026093
330.000000	0.024646
329.000000	0.029133
328.000000	0.029036
327.000000	0.028473
326.000000	0.024515
325.000000	0.035573
