PE UV       SUBTECH     SPECTRUM    ASCII       PEDS        4.00        
   -1
J37.Sample.Raw.asc
18/05/25
16:40:06.00
18/05/25
16:40:06.00
Administrator
longitudinal
325.000000
1
Lambda 850
850L1710193
PerkinElmer UV WinLab 6.4.0.973 / 2.02.06 Lambda 800 UV/VIS, Jan 28 2016 16:58:34

0
0
2
0
0
UV/VIS
1
1
1
RBeamAtt,SBeamAtt,60mm sphere
0
0
0
0
Fix
 
0
0.16
0
0
0
 
 
 
0
 
0
319.2
0
Front
100
 
S:100 R:100
 
0
0
0
 
0
 
 
 
0
 
 
0
0
0
0
0
 
 
 
 
0
0


0
0
#HDR
-1
-1
#GR
nm
%T
1.0
0.0
900.000000
-1.000000
576
8
75.448121
0.015387
#DATA
900.000000	73.026406
899.000000	73.910165
898.000000	70.678838
897.000000	70.728183
896.000000	73.877221
895.000000	71.555639
894.000000	75.005716
893.000000	73.307174
892.000000	75.448121
891.000000	74.254308
890.000000	73.360499
889.000000	74.190381
888.000000	73.367661
887.000000	71.797221
886.000000	74.802739
885.000000	74.328534
884.000000	73.370114
883.000000	74.719767
882.000000	74.988117
881.000000	75.049164
880.000000	74.597434
879.000000	73.999408
878.000000	74.077890
877.000000	73.902244
876.000000	74.623027
875.000000	72.077056
874.000000	74.315634
873.000000	73.826379
872.000000	73.706010
871.000000	73.766437
870.000000	74.217753
869.000000	74.125838
868.000000	73.561806
867.000000	74.475269
866.000000	73.168243
865.000000	72.982546
864.000000	74.341394
863.000000	73.309854
862.000000	73.021989
861.000000	72.854760
860.000000	72.508040
859.000000	72.900725
858.000000	72.500248
857.000000	73.432687
856.000000	73.206985
855.000000	73.037320
854.000000	73.149623
853.000000	73.016912
852.000000	73.033881
851.000000	73.089447
850.000000	73.004715
849.000000	73.453667
848.000000	72.825366
847.000000	72.923784
846.000000	72.488742
845.000000	72.450847
844.000000	72.532313
843.000000	72.257623
842.000000	72.253349
841.000000	72.636732
840.000000	72.579127
839.000000	72.523293
838.000000	72.302984
837.000000	72.081420
836.000000	72.401628
835.000000	71.885282
834.000000	72.038333
833.000000	72.316464
832.000000	72.156973
831.000000	72.141369
830.000000	72.132745
829.000000	71.862029
828.000000	72.001360
827.000000	72.104264
826.000000	72.127941
825.000000	71.600595
824.000000	71.542792
823.000000	71.942227
822.000000	71.935163
821.000000	71.636374
820.000000	71.641710
819.000000	71.801961
818.000000	71.629888
817.000000	71.552917
816.000000	71.496321
815.000000	71.416129
814.000000	71.542176
813.000000	71.650285
812.000000	71.613812
811.000000	71.408755
810.000000	71.448668
809.000000	71.625114
808.000000	71.483401
807.000000	71.473613
806.000000	71.638907
805.000000	71.587153
804.000000	71.111579
803.000000	71.227589
802.000000	71.310057
801.000000	71.251485
800.000000	71.503193
799.000000	71.552322
798.000000	71.457440
797.000000	71.427984
796.000000	71.408626
795.000000	71.413689
794.000000	71.463739
793.000000	71.408975
792.000000	71.398936
791.000000	71.255650
790.000000	71.167105
789.000000	71.240547
788.000000	71.221581
787.000000	71.147187
786.000000	71.322069
785.000000	71.314213
784.000000	71.141387
783.000000	71.125954
782.000000	71.146349
781.000000	71.117371
780.000000	71.135897
779.000000	71.167106
778.000000	71.268651
777.000000	71.208024
776.000000	71.070543
775.000000	71.186002
774.000000	71.093202
773.000000	71.028555
772.000000	71.091141
771.000000	71.019350
770.000000	70.908523
769.000000	70.865835
768.000000	70.822221
767.000000	70.865998
766.000000	70.902805
765.000000	70.819839
764.000000	70.728087
763.000000	70.724655
762.000000	70.769741
761.000000	70.776196
760.000000	70.727547
759.000000	70.722038
758.000000	70.762766
757.000000	70.766770
756.000000	70.787828
755.000000	70.749812
754.000000	70.660897
753.000000	70.526702
752.000000	70.541290
751.000000	70.546158
750.000000	70.541033
749.000000	70.598895
748.000000	70.540575
747.000000	70.554659
746.000000	70.460131
745.000000	70.396509
744.000000	70.513144
743.000000	70.457517
742.000000	70.407574
741.000000	70.273420
740.000000	70.382433
739.000000	70.418990
738.000000	70.423353
737.000000	70.390165
736.000000	70.315634
735.000000	70.250643
734.000000	70.258062
733.000000	70.326030
732.000000	70.312484
731.000000	70.190674
730.000000	70.130216
729.000000	70.156550
728.000000	70.132248
727.000000	70.214010
726.000000	70.188743
725.000000	70.152250
724.000000	70.135435
723.000000	70.167640
722.000000	70.078094
721.000000	70.077042
720.000000	70.136519
719.000000	70.161337
718.000000	70.068630
717.000000	69.931124
716.000000	69.933361
715.000000	69.909597
714.000000	69.933170
713.000000	69.936203
712.000000	69.894400
711.000000	69.903114
710.000000	69.908938
709.000000	69.858838
708.000000	69.847409
707.000000	69.850065
706.000000	69.849440
705.000000	69.870371
704.000000	69.813545
703.000000	69.811678
702.000000	69.734121
701.000000	69.803448
700.000000	69.834402
699.000000	69.768701
698.000000	69.656440
697.000000	69.710078
696.000000	69.655144
695.000000	69.515430
694.000000	69.502690
693.000000	69.526276
692.000000	69.506636
691.000000	69.566653
690.000000	69.380695
689.000000	69.347199
688.000000	69.426132
687.000000	69.378576
686.000000	69.312945
685.000000	69.237881
684.000000	69.347588
683.000000	69.214130
682.000000	69.130605
681.000000	69.132502
680.000000	69.113566
679.000000	69.061199
678.000000	69.116915
677.000000	69.049006
676.000000	69.023243
675.000000	69.025961
674.000000	68.998621
673.000000	69.033226
672.000000	69.055869
671.000000	68.942271
670.000000	68.893057
669.000000	68.881571
668.000000	68.878204
667.000000	68.790069
666.000000	68.887744
665.000000	68.760330
664.000000	68.793986
663.000000	68.725141
662.000000	68.601881
661.000000	68.655956
660.000000	68.612494
659.000000	68.604189
658.000000	68.582067
657.000000	68.542264
656.000000	68.580612
655.000000	68.518472
654.000000	68.370708
653.000000	68.416499
652.000000	68.341548
651.000000	68.253360
650.000000	68.186384
649.000000	68.204116
648.000000	68.128665
647.000000	68.137037
646.000000	68.096035
645.000000	68.068310
644.000000	68.035624
643.000000	67.863656
642.000000	67.865986
641.000000	67.913265
640.000000	67.881099
639.000000	67.874454
638.000000	67.739738
637.000000	67.764291
636.000000	67.624081
635.000000	67.593036
634.000000	67.570606
633.000000	67.469693
632.000000	67.443418
631.000000	67.454712
630.000000	67.345629
629.000000	67.350456
628.000000	67.346928
627.000000	67.268245
626.000000	67.201243
625.000000	67.206907
624.000000	67.141141
623.000000	66.987132
622.000000	66.997868
621.000000	66.915367
620.000000	66.846629
619.000000	66.809562
618.000000	66.810378
617.000000	66.731532
616.000000	66.671885
615.000000	66.656287
614.000000	66.586610
613.000000	66.462896
612.000000	66.476087
611.000000	66.428319
610.000000	66.380101
609.000000	66.313846
608.000000	66.295292
607.000000	66.183000
606.000000	66.153772
605.000000	66.078778
604.000000	66.042967
603.000000	66.020585
602.000000	65.940745
601.000000	65.866648
600.000000	65.798157
599.000000	65.757620
598.000000	65.772598
597.000000	65.693793
596.000000	65.671579
595.000000	65.589587
594.000000	65.511793
593.000000	65.435497
592.000000	65.353627
591.000000	65.343428
590.000000	65.287862
589.000000	65.210221
588.000000	65.198802
587.000000	65.121279
586.000000	65.036854
585.000000	65.061947
584.000000	64.967907
583.000000	64.814273
582.000000	64.767840
581.000000	64.764599
580.000000	64.728551
579.000000	64.658061
578.000000	64.607341
577.000000	64.523178
576.000000	64.506322
575.000000	64.402700
574.000000	64.372077
573.000000	64.322389
572.000000	64.237830
571.000000	64.244393
570.000000	64.170726
569.000000	64.083158
568.000000	64.027116
567.000000	63.991799
566.000000	63.979448
565.000000	63.905921
564.000000	63.866809
563.000000	63.821405
562.000000	63.806737
561.000000	63.737287
560.000000	63.611573
559.000000	63.601810
558.000000	63.575465
557.000000	63.497424
556.000000	63.486148
555.000000	63.399786
554.000000	63.331074
553.000000	63.256776
552.000000	63.221736
551.000000	63.191686
550.000000	63.138040
549.000000	63.087541
548.000000	63.081811
547.000000	62.994448
546.000000	62.904690
545.000000	62.844903
544.000000	62.864364
543.000000	62.816327
542.000000	62.732421
541.000000	62.677110
540.000000	62.634690
539.000000	62.569883
538.000000	62.520236
537.000000	62.454709
536.000000	62.460276
535.000000	62.426996
534.000000	62.357744
533.000000	62.270701
532.000000	62.211129
531.000000	62.195361
530.000000	62.172799
529.000000	62.144275
528.000000	62.090047
527.000000	62.023223
526.000000	61.974813
525.000000	61.897406
524.000000	61.819239
523.000000	61.800383
522.000000	61.784360
521.000000	61.732830
520.000000	61.687579
519.000000	61.638385
518.000000	61.581136
517.000000	61.542380
516.000000	61.503318
515.000000	61.451388
514.000000	61.398474
513.000000	61.349152
512.000000	61.314213
511.000000	61.270199
510.000000	61.220290
509.000000	61.172881
508.000000	61.123706
507.000000	61.070844
506.000000	61.036617
505.000000	60.996852
504.000000	60.935892
503.000000	60.894573
502.000000	60.852001
501.000000	60.800822
500.000000	60.762771
499.000000	60.693041
498.000000	60.616793
497.000000	60.588420
496.000000	60.568051
495.000000	60.503898
494.000000	60.445615
493.000000	60.390066
492.000000	60.336812
491.000000	60.266189
490.000000	60.223740
489.000000	60.186831
488.000000	60.125721
487.000000	60.064989
486.000000	60.022045
485.000000	59.986663
484.000000	59.898047
483.000000	59.868013
482.000000	59.826195
481.000000	59.761020
480.000000	59.702402
479.000000	59.649728
478.000000	59.599474
477.000000	59.557671
476.000000	59.517873
475.000000	59.443608
474.000000	59.400005
473.000000	59.311298
472.000000	59.254913
471.000000	59.243410
470.000000	59.183922
469.000000	59.055150
468.000000	58.986150
467.000000	58.945253
466.000000	58.872971
465.000000	58.808799
464.000000	58.762720
463.000000	58.676903
462.000000	58.614244
461.000000	58.533478
460.000000	58.421486
459.000000	58.355950
458.000000	58.260394
457.000000	58.154060
456.000000	58.079973
455.000000	58.015359
454.000000	57.903199
453.000000	57.768646
452.000000	57.756541
451.000000	57.672376
450.000000	57.548377
449.000000	57.420612
448.000000	57.367123
447.000000	57.278697
446.000000	57.171693
445.000000	57.035057
444.000000	56.875889
443.000000	56.730809
442.000000	56.597777
441.000000	56.579500
440.000000	56.490795
439.000000	56.348804
438.000000	56.215009
437.000000	56.118808
436.000000	55.985884
435.000000	55.844177
434.000000	55.729484
433.000000	55.613168
432.000000	55.431607
431.000000	55.327825
430.000000	55.154586
429.000000	55.110088
428.000000	54.932833
427.000000	54.760878
426.000000	54.548490
425.000000	54.427254
424.000000	54.324997
423.000000	54.143348
422.000000	53.979586
421.000000	53.783176
420.000000	53.712553
419.000000	53.487046
418.000000	53.269081
417.000000	53.144019
416.000000	52.915389
415.000000	52.748243
414.000000	52.555600
413.000000	52.379027
412.000000	52.185636
411.000000	51.975646
410.000000	51.853278
409.000000	51.606970
408.000000	51.428383
407.000000	51.270118
406.000000	51.030477
405.000000	50.899979
404.000000	50.694812
403.000000	50.474269
402.000000	50.197233
401.000000	50.054440
400.000000	49.840677
399.000000	49.645278
398.000000	49.360451
397.000000	49.176277
396.000000	48.921181
395.000000	48.722465
394.000000	48.523329
393.000000	48.304712
392.000000	48.037432
391.000000	47.790908
390.000000	47.566240
389.000000	47.343243
388.000000	47.069158
387.000000	46.752650
386.000000	46.559393
385.000000	46.230669
384.000000	45.888694
383.000000	45.666627
382.000000	45.268568
381.000000	44.969779
380.000000	44.649559
379.000000	44.403413
378.000000	43.735091
377.000000	43.144360
376.000000	42.759363
375.000000	42.251791
374.000000	41.624230
373.000000	40.900895
372.000000	40.184744
371.000000	39.442385
370.000000	38.495878
369.000000	37.383330
368.000000	36.245135
367.000000	34.968148
366.000000	33.529290
365.000000	31.857035
364.000000	30.018822
363.000000	28.111183
362.000000	25.909654
361.000000	23.600528
360.000000	21.212075
359.000000	18.672908
358.000000	16.139612
357.000000	13.573344
356.000000	11.085443
355.000000	8.762125
354.000000	6.674714
353.000000	4.862183
352.000000	3.350445
351.000000	2.181863
350.000000	1.332594
349.000000	0.760337
348.000000	0.406060
347.000000	0.196661
346.000000	0.093398
345.000000	0.048017
344.000000	0.032896
343.000000	0.017704
342.000000	0.015387
341.000000	0.017791
340.000000	0.017433
339.000000	0.017830
338.000000	0.015902
337.000000	0.021484
336.000000	0.022397
335.000000	0.019212
334.000000	0.020278
333.000000	0.026100
332.000000	0.022738
331.000000	0.023694
330.000000	0.026822
329.000000	0.031989
328.000000	0.022282
327.000000	0.025218
326.000000	0.033027
325.000000	0.036236
