PE UV       SUBTECH     SPECTRUM    ASCII       PEDS        4.00        
   -1
J43.Sample.Raw.asc
18/05/25
16:48:50.00
18/05/25
16:48:50.00
Administrator
longitudinal
325.000000
1
Lambda 850
850L1710193
PerkinElmer UV WinLab 6.4.0.973 / 2.02.06 Lambda 800 UV/VIS, Jan 28 2016 16:58:34

0
0
2
0
0
UV/VIS
1
1
1
RBeamAtt,SBeamAtt,60mm sphere
0
0
0
0
Fix
 
0
0.16
0
0
0
 
 
 
0
 
0
319.2
0
Front
100
 
S:100 R:100
 
0
0
0
 
0
 
 
 
0
 
 
0
0
0
0
0
 
 
 
 
0
0


0
0
#HDR
-1
-1
#GR
nm
%T
1.0
0.0
900.000000
-1.000000
576
8
75.739451
0.015132
#DATA
900.000000	73.182756
899.000000	70.941729
898.000000	74.541292
897.000000	73.686652
896.000000	73.808674
895.000000	73.175741
894.000000	75.116839
893.000000	72.313552
892.000000	74.958909
891.000000	74.686625
890.000000	74.884535
889.000000	74.590423
888.000000	72.157664
887.000000	73.357854
886.000000	75.288558
885.000000	73.154462
884.000000	74.344689
883.000000	75.633342
882.000000	75.739451
881.000000	73.818884
880.000000	74.730819
879.000000	74.457382
878.000000	73.063702
877.000000	73.362968
876.000000	74.290412
875.000000	72.807645
874.000000	73.913025
873.000000	74.020003
872.000000	75.130300
871.000000	73.456354
870.000000	73.475074
869.000000	74.020147
868.000000	72.936828
867.000000	73.347870
866.000000	73.866116
865.000000	73.411015
864.000000	74.115225
863.000000	73.234937
862.000000	72.994789
861.000000	73.189763
860.000000	72.301319
859.000000	72.894093
858.000000	72.334879
857.000000	72.854730
856.000000	72.815273
855.000000	73.098256
854.000000	72.767224
853.000000	72.791249
852.000000	72.753425
851.000000	72.667040
850.000000	72.506322
849.000000	72.770059
848.000000	72.516625
847.000000	72.846174
846.000000	72.362707
845.000000	72.305042
844.000000	72.396441
843.000000	72.205987
842.000000	72.232414
841.000000	72.270130
840.000000	72.096673
839.000000	72.208619
838.000000	71.959644
837.000000	71.763911
836.000000	72.000404
835.000000	71.608278
834.000000	71.642663
833.000000	71.823073
832.000000	71.359060
831.000000	71.511982
830.000000	71.372578
829.000000	71.458507
828.000000	71.211919
827.000000	71.316682
826.000000	71.355730
825.000000	71.152553
824.000000	70.978036
823.000000	71.244732
822.000000	71.282641
821.000000	71.037817
820.000000	70.998343
819.000000	71.137546
818.000000	70.931134
817.000000	71.040686
816.000000	71.003748
815.000000	70.915524
814.000000	70.891084
813.000000	70.944993
812.000000	70.980748
811.000000	70.847214
810.000000	70.704016
809.000000	70.558565
808.000000	70.480260
807.000000	70.753396
806.000000	70.708719
805.000000	70.685791
804.000000	70.349883
803.000000	70.289478
802.000000	70.399917
801.000000	70.325260
800.000000	70.421886
799.000000	70.478476
798.000000	70.430234
797.000000	70.303011
796.000000	70.321850
795.000000	70.414013
794.000000	70.358275
793.000000	70.156217
792.000000	70.116626
791.000000	70.034781
790.000000	69.950395
789.000000	70.182566
788.000000	70.089673
787.000000	69.935937
786.000000	69.910519
785.000000	69.865876
784.000000	69.928375
783.000000	69.962926
782.000000	69.863541
781.000000	69.885675
780.000000	69.890660
779.000000	69.768819
778.000000	69.825273
777.000000	69.895127
776.000000	69.667089
775.000000	69.566108
774.000000	69.576378
773.000000	69.619104
772.000000	69.685090
771.000000	69.667131
770.000000	69.483092
769.000000	69.261522
768.000000	69.191757
767.000000	69.198947
766.000000	69.075033
765.000000	69.074529
764.000000	69.114364
763.000000	69.089842
762.000000	69.125444
761.000000	69.142864
760.000000	69.102277
759.000000	69.065674
758.000000	68.968688
757.000000	68.942857
756.000000	68.974085
755.000000	68.936146
754.000000	68.917974
753.000000	68.802777
752.000000	68.697522
751.000000	68.699230
750.000000	68.693318
749.000000	68.578531
748.000000	68.510186
747.000000	68.506445
746.000000	68.498824
745.000000	68.404622
744.000000	68.429339
743.000000	68.346168
742.000000	68.279753
741.000000	68.290976
740.000000	68.320045
739.000000	68.339663
738.000000	68.335664
737.000000	68.329702
736.000000	68.177358
735.000000	68.143461
734.000000	68.081367
733.000000	68.058728
732.000000	68.085834
731.000000	67.983585
730.000000	67.982065
729.000000	68.005327
728.000000	67.889124
727.000000	68.003597
726.000000	67.988061
725.000000	67.866090
724.000000	67.813462
723.000000	67.868897
722.000000	67.806161
721.000000	67.769644
720.000000	67.759933
719.000000	67.784407
718.000000	67.668404
717.000000	67.666228
716.000000	67.594405
715.000000	67.561042
714.000000	67.605218
713.000000	67.600446
712.000000	67.462671
711.000000	67.473276
710.000000	67.422278
709.000000	67.431707
708.000000	67.372111
707.000000	67.317471
706.000000	67.408928
705.000000	67.380487
704.000000	67.303577
703.000000	67.265285
702.000000	67.327384
701.000000	67.320367
700.000000	67.206949
699.000000	67.153939
698.000000	67.127752
697.000000	67.219770
696.000000	67.116969
695.000000	66.990337
694.000000	66.920222
693.000000	66.941301
692.000000	66.910852
691.000000	66.875011
690.000000	66.727497
689.000000	66.717967
688.000000	66.738760
687.000000	66.678941
686.000000	66.629610
685.000000	66.534245
684.000000	66.586762
683.000000	66.421920
682.000000	66.429974
681.000000	66.354199
680.000000	66.425175
679.000000	66.365681
678.000000	66.263768
677.000000	66.272354
676.000000	66.156091
675.000000	66.081421
674.000000	66.099450
673.000000	65.995941
672.000000	66.027849
671.000000	66.017226
670.000000	65.906130
669.000000	65.853275
668.000000	65.743462
667.000000	65.699166
666.000000	65.758239
665.000000	65.650413
664.000000	65.525198
663.000000	65.421470
662.000000	65.393177
661.000000	65.345974
660.000000	65.303331
659.000000	65.199591
658.000000	65.144184
657.000000	65.123111
656.000000	65.020313
655.000000	64.984468
654.000000	64.841428
653.000000	64.794972
652.000000	64.742578
651.000000	64.603080
650.000000	64.514108
649.000000	64.416945
648.000000	64.287488
647.000000	64.315254
646.000000	64.239401
645.000000	64.103595
644.000000	64.050333
643.000000	63.834899
642.000000	63.795487
641.000000	63.752555
640.000000	63.685261
639.000000	63.649339
638.000000	63.486876
637.000000	63.486501
636.000000	63.237705
635.000000	63.200975
634.000000	63.115695
633.000000	62.951261
632.000000	62.870312
631.000000	62.746446
630.000000	62.699281
629.000000	62.661542
628.000000	62.586497
627.000000	62.356201
626.000000	62.284367
625.000000	62.206518
624.000000	62.142592
623.000000	61.995936
622.000000	61.914450
621.000000	61.722635
620.000000	61.722813
619.000000	61.584017
618.000000	61.480417
617.000000	61.346779
616.000000	61.237925
615.000000	61.118580
614.000000	61.028823
613.000000	60.891117
612.000000	60.865033
611.000000	60.770745
610.000000	60.617260
609.000000	60.478128
608.000000	60.422861
607.000000	60.238201
606.000000	60.112800
605.000000	60.025855
604.000000	59.968309
603.000000	59.793939
602.000000	59.701195
601.000000	59.561699
600.000000	59.488717
599.000000	59.390094
598.000000	59.300993
597.000000	59.156015
596.000000	59.087054
595.000000	58.998006
594.000000	58.808798
593.000000	58.736440
592.000000	58.591327
591.000000	58.515705
590.000000	58.395648
589.000000	58.243769
588.000000	58.167439
587.000000	58.108092
586.000000	57.941276
585.000000	57.859815
584.000000	57.764568
583.000000	57.636196
582.000000	57.546845
581.000000	57.410219
580.000000	57.257793
579.000000	57.153581
578.000000	57.079119
577.000000	56.936702
576.000000	56.895964
575.000000	56.776703
574.000000	56.705299
573.000000	56.586123
572.000000	56.486264
571.000000	56.389616
570.000000	56.284020
569.000000	56.137574
568.000000	56.031340
567.000000	55.941077
566.000000	55.819414
565.000000	55.750666
564.000000	55.641537
563.000000	55.591731
562.000000	55.509704
561.000000	55.413215
560.000000	55.298938
559.000000	55.183958
558.000000	55.090816
557.000000	54.969462
556.000000	54.914512
555.000000	54.819055
554.000000	54.750876
553.000000	54.623227
552.000000	54.531404
551.000000	54.472841
550.000000	54.359851
549.000000	54.270841
548.000000	54.210293
547.000000	54.116171
546.000000	54.037049
545.000000	53.937656
544.000000	53.861756
543.000000	53.789546
542.000000	53.706243
541.000000	53.624907
540.000000	53.554362
539.000000	53.487696
538.000000	53.390484
537.000000	53.289641
536.000000	53.239979
535.000000	53.166995
534.000000	53.086100
533.000000	53.001878
532.000000	52.935885
531.000000	52.862527
530.000000	52.754025
529.000000	52.705237
528.000000	52.670358
527.000000	52.597371
526.000000	52.514028
525.000000	52.434745
524.000000	52.369939
523.000000	52.303080
522.000000	52.251230
521.000000	52.184292
520.000000	52.112846
519.000000	52.050832
518.000000	51.978596
517.000000	51.894405
516.000000	51.838758
515.000000	51.790906
514.000000	51.732733
513.000000	51.671065
512.000000	51.603094
511.000000	51.532348
510.000000	51.467952
509.000000	51.403672
508.000000	51.359886
507.000000	51.307531
506.000000	51.240004
505.000000	51.174063
504.000000	51.096052
503.000000	51.055232
502.000000	51.018678
501.000000	50.938537
500.000000	50.882763
499.000000	50.820989
498.000000	50.744922
497.000000	50.690910
496.000000	50.650795
495.000000	50.578395
494.000000	50.509716
493.000000	50.451854
492.000000	50.392818
491.000000	50.361355
490.000000	50.292307
489.000000	50.239529
488.000000	50.170510
487.000000	50.115301
486.000000	50.066399
485.000000	50.011760
484.000000	49.954046
483.000000	49.928060
482.000000	49.868069
481.000000	49.795927
480.000000	49.765856
479.000000	49.707423
478.000000	49.633074
477.000000	49.591023
476.000000	49.569973
475.000000	49.493437
474.000000	49.424186
473.000000	49.384457
472.000000	49.330872
471.000000	49.303768
470.000000	49.237892
469.000000	49.175067
468.000000	49.119036
467.000000	49.063380
466.000000	48.984278
465.000000	48.955756
464.000000	48.883824
463.000000	48.813395
462.000000	48.737750
461.000000	48.684732
460.000000	48.612676
459.000000	48.550220
458.000000	48.462236
457.000000	48.370554
456.000000	48.303459
455.000000	48.231706
454.000000	48.164356
453.000000	48.084266
452.000000	48.018829
451.000000	47.955072
450.000000	47.824050
449.000000	47.721556
448.000000	47.719728
447.000000	47.573116
446.000000	47.488664
445.000000	47.402265
444.000000	47.269627
443.000000	47.160874
442.000000	47.086224
441.000000	47.020793
440.000000	46.941519
439.000000	46.828497
438.000000	46.750228
437.000000	46.620145
436.000000	46.507600
435.000000	46.366281
434.000000	46.245800
433.000000	46.203439
432.000000	46.091404
431.000000	45.940836
430.000000	45.850259
429.000000	45.751164
428.000000	45.653484
427.000000	45.535917
426.000000	45.402226
425.000000	45.269992
424.000000	45.150777
423.000000	45.008682
422.000000	44.904316
421.000000	44.754617
420.000000	44.676718
419.000000	44.511764
418.000000	44.341133
417.000000	44.237848
416.000000	44.095889
415.000000	43.915837
414.000000	43.735202
413.000000	43.626677
412.000000	43.512161
411.000000	43.319275
410.000000	43.251766
409.000000	43.061085
408.000000	42.910319
407.000000	42.767127
406.000000	42.631705
405.000000	42.484749
404.000000	42.284991
403.000000	42.150512
402.000000	41.962133
401.000000	41.830794
400.000000	41.666151
399.000000	41.521304
398.000000	41.315023
397.000000	41.165892
396.000000	40.985513
395.000000	40.823086
394.000000	40.690884
393.000000	40.494568
392.000000	40.269729
391.000000	40.055829
390.000000	39.883232
389.000000	39.651333
388.000000	39.528188
387.000000	39.244024
386.000000	39.156686
385.000000	38.933609
384.000000	38.723254
383.000000	38.499316
382.000000	38.194616
381.000000	37.997716
380.000000	37.834050
379.000000	37.619366
378.000000	37.255604
377.000000	36.878900
376.000000	36.611610
375.000000	36.316771
374.000000	35.996582
373.000000	35.614288
372.000000	35.103707
371.000000	34.712611
370.000000	34.228083
369.000000	33.615014
368.000000	32.938840
367.000000	32.232118
366.000000	31.456405
365.000000	30.557668
364.000000	29.527689
363.000000	28.422627
362.000000	26.947411
361.000000	25.531100
360.000000	24.102497
359.000000	22.344203
358.000000	20.463082
357.000000	18.501501
356.000000	16.437932
355.000000	14.313261
354.000000	12.178373
353.000000	10.093325
352.000000	8.111206
351.000000	6.294500
350.000000	4.677122
349.000000	3.319785
348.000000	2.244397
347.000000	1.398540
346.000000	0.830024
345.000000	0.448862
344.000000	0.225558
343.000000	0.105740
342.000000	0.045968
341.000000	0.022888
340.000000	0.015989
339.000000	0.015132
338.000000	0.020817
337.000000	0.021676
336.000000	0.019404
335.000000	0.021143
334.000000	0.021051
333.000000	0.016627
332.000000	0.022351
331.000000	0.018471
330.000000	0.022949
329.000000	0.027724
328.000000	0.032261
327.000000	0.038506
326.000000	0.033610
325.000000	0.025453
