PE UV       SUBTECH     SPECTRUM    ASCII       PEDS        4.00        
   -1
100% or 0 Absorbance Baseline.Correction.Raw.asc
18/05/03
13:45:28.00
18/05/03
13:45:28.00
Administrator

325.000000
1
Lambda 850
850L1710193
PerkinElmer UV WinLab 6.4.0.973 / 2.02.06 Lambda 800 UV/VIS, Jan 28 2016 16:58:34

0
0
2
0
0
UV/VIS
0
1
1
RBeamAtt,SBeamAtt,60mm sphere
0
0
0
0
Fix
 
0
0.16
0
0
0
 
 
 
0
 
0
319.2
0
Front
100
 
S:100 R:100
 
0
0
0
 
0
 
 
 
0
 
 
0
0
0
0
0
 
 
 
 
0
0


0
0
#HDR
-1
-1
#GR
nm
%T
1.0
0.0
900.000000
-1.000000
576
8
119.751000
102.328400
#DATA
900.000000	110.298800
899.000000	115.112200
898.000000	114.553500
897.000000	113.905200
896.000000	110.107100
895.000000	110.367300
894.000000	106.430800
893.000000	112.207000
892.000000	116.533100
891.000000	111.568700
890.000000	114.169200
889.000000	113.995300
888.000000	116.787500
887.000000	114.835100
886.000000	115.800300
885.000000	115.332100
884.000000	114.480000
883.000000	115.570900
882.000000	114.474900
881.000000	115.714700
880.000000	115.484600
879.000000	116.083100
878.000000	114.155100
877.000000	115.096300
876.000000	115.893400
875.000000	115.642800
874.000000	116.504400
873.000000	116.740400
872.000000	116.224600
871.000000	116.648900
870.000000	116.160800
869.000000	115.675400
868.000000	115.412300
867.000000	115.564400
866.000000	116.426400
865.000000	117.280300
864.000000	115.605800
863.000000	116.792500
862.000000	117.067700
861.000000	116.547600
860.000000	117.951600
859.000000	117.414100
858.000000	117.467000
857.000000	117.366700
856.000000	116.969900
855.000000	117.310500
854.000000	117.565600
853.000000	117.615400
852.000000	117.921200
851.000000	117.656100
850.000000	117.820800
849.000000	118.131400
848.000000	117.860400
847.000000	118.295600
846.000000	118.329900
845.000000	118.465100
844.000000	118.698800
843.000000	119.092000
842.000000	118.700100
841.000000	118.343000
840.000000	119.111200
839.000000	119.015400
838.000000	118.517400
837.000000	118.665200
836.000000	119.086600
835.000000	119.336200
834.000000	119.020200
833.000000	119.164300
832.000000	119.546100
831.000000	119.303200
830.000000	119.175100
829.000000	119.551400
828.000000	119.454800
827.000000	119.553400
826.000000	119.512700
825.000000	119.504100
824.000000	119.417500
823.000000	119.567400
822.000000	119.584700
821.000000	119.751000
820.000000	119.652900
819.000000	119.446600
818.000000	119.581100
817.000000	119.409100
816.000000	119.412800
815.000000	119.689700
814.000000	119.625500
813.000000	119.469700
812.000000	119.448300
811.000000	119.473300
810.000000	119.474900
809.000000	119.377800
808.000000	119.350100
807.000000	119.512100
806.000000	119.433600
805.000000	119.414100
804.000000	119.561100
803.000000	119.443700
802.000000	119.333000
801.000000	119.084200
800.000000	119.126900
799.000000	119.106600
798.000000	118.925100
797.000000	118.829000
796.000000	119.081600
795.000000	119.084000
794.000000	119.111500
793.000000	118.997000
792.000000	118.741600
791.000000	118.801900
790.000000	118.732800
789.000000	118.723800
788.000000	118.550600
787.000000	118.629500
786.000000	118.875900
785.000000	118.781300
784.000000	118.719600
783.000000	118.610700
782.000000	118.498400
781.000000	118.538300
780.000000	118.506800
779.000000	118.328600
778.000000	118.332100
777.000000	118.465800
776.000000	118.332300
775.000000	118.344400
774.000000	118.343400
773.000000	118.336100
772.000000	118.201800
771.000000	118.064000
770.000000	118.115400
769.000000	118.042800
768.000000	118.028500
767.000000	117.920400
766.000000	117.876100
765.000000	118.019800
764.000000	117.918000
763.000000	117.882000
762.000000	117.744700
761.000000	117.729500
760.000000	117.768300
759.000000	117.558100
758.000000	117.515900
757.000000	117.548500
756.000000	117.549300
755.000000	117.575200
754.000000	117.541200
753.000000	117.366300
752.000000	117.320800
751.000000	117.305800
750.000000	117.185800
749.000000	117.060600
748.000000	117.201000
747.000000	117.321800
746.000000	117.215500
745.000000	117.074900
744.000000	117.004900
743.000000	116.990600
742.000000	116.862200
741.000000	116.929500
740.000000	116.879800
739.000000	116.745700
738.000000	116.756800
737.000000	116.692900
736.000000	116.670800
735.000000	116.839600
734.000000	116.729400
733.000000	116.738500
732.000000	116.600600
731.000000	116.547600
730.000000	116.550400
729.000000	116.500600
728.000000	116.440500
727.000000	116.419200
726.000000	116.353100
725.000000	116.381400
724.000000	116.431000
723.000000	116.415100
722.000000	116.206900
721.000000	116.063100
720.000000	116.165900
719.000000	116.132800
718.000000	116.068500
717.000000	116.108600
716.000000	116.114500
715.000000	116.053800
714.000000	115.930500
713.000000	116.027200
712.000000	115.962700
711.000000	115.940200
710.000000	115.762600
709.000000	115.793500
708.000000	115.745500
707.000000	115.695400
706.000000	115.804100
705.000000	115.710100
704.000000	115.718400
703.000000	115.652500
702.000000	115.714200
701.000000	115.639800
700.000000	115.638700
699.000000	115.559000
698.000000	115.514500
697.000000	115.458600
696.000000	115.459600
695.000000	115.462400
694.000000	115.370600
693.000000	115.467700
692.000000	115.402700
691.000000	115.403800
690.000000	115.328000
689.000000	115.455800
688.000000	115.332300
687.000000	115.406600
686.000000	115.400100
685.000000	115.385600
684.000000	115.268900
683.000000	115.289500
682.000000	115.325900
681.000000	115.283100
680.000000	115.313800
679.000000	115.354200
678.000000	115.224400
677.000000	115.248000
676.000000	115.245100
675.000000	115.163500
674.000000	115.091900
673.000000	115.116400
672.000000	115.105900
671.000000	115.097500
670.000000	115.074200
669.000000	115.063400
668.000000	115.000200
667.000000	114.965100
666.000000	115.053400
665.000000	114.904200
664.000000	114.958500
663.000000	114.895100
662.000000	114.902600
661.000000	114.860800
660.000000	114.836600
659.000000	114.812300
658.000000	114.925100
657.000000	114.742600
656.000000	114.645700
655.000000	114.754400
654.000000	114.748800
653.000000	114.805900
652.000000	114.694500
651.000000	114.718000
650.000000	114.636600
649.000000	114.666700
648.000000	114.745100
647.000000	114.673800
646.000000	114.631500
645.000000	114.556800
644.000000	114.674100
643.000000	114.678400
642.000000	114.574900
641.000000	114.529000
640.000000	114.547000
639.000000	114.558900
638.000000	114.428000
637.000000	114.519100
636.000000	114.439600
635.000000	114.558600
634.000000	114.525600
633.000000	114.423600
632.000000	114.448800
631.000000	114.415700
630.000000	114.358900
629.000000	114.410700
628.000000	114.441300
627.000000	114.411700
626.000000	114.458700
625.000000	114.293100
624.000000	114.284500
623.000000	114.379400
622.000000	114.326000
621.000000	114.315700
620.000000	114.351500
619.000000	114.309200
618.000000	114.288600
617.000000	114.343900
616.000000	114.310900
615.000000	114.259200
614.000000	114.173300
613.000000	114.290300
612.000000	114.171400
611.000000	114.156700
610.000000	114.216800
609.000000	114.185500
608.000000	114.183800
607.000000	114.203000
606.000000	114.135500
605.000000	114.165700
604.000000	114.157300
603.000000	114.215900
602.000000	114.119000
601.000000	114.141200
600.000000	114.131400
599.000000	114.210400
598.000000	114.153600
597.000000	114.125000
596.000000	114.105200
595.000000	114.121600
594.000000	114.153300
593.000000	114.147200
592.000000	114.118500
591.000000	114.100500
590.000000	114.076400
589.000000	114.037300
588.000000	114.087900
587.000000	114.126800
586.000000	114.093300
585.000000	114.066600
584.000000	114.013800
583.000000	114.064700
582.000000	114.096700
581.000000	114.142200
580.000000	114.066300
579.000000	114.018700
578.000000	114.091800
577.000000	114.131500
576.000000	114.115200
575.000000	114.056500
574.000000	114.022200
573.000000	114.073300
572.000000	114.088700
571.000000	114.046300
570.000000	114.043700
569.000000	114.042300
568.000000	113.988300
567.000000	113.978200
566.000000	113.959500
565.000000	113.943300
564.000000	113.941400
563.000000	114.005800
562.000000	114.217700
561.000000	114.318500
560.000000	114.281400
559.000000	114.268900
558.000000	114.331900
557.000000	114.303700
556.000000	114.301000
555.000000	114.317700
554.000000	114.289500
553.000000	114.312400
552.000000	114.306300
551.000000	114.326100
550.000000	114.378600
549.000000	114.408400
548.000000	114.456800
547.000000	114.433600
546.000000	114.420400
545.000000	114.442400
544.000000	114.420100
543.000000	114.447700
542.000000	114.464100
541.000000	114.474700
540.000000	114.517500
539.000000	114.505100
538.000000	114.499000
537.000000	114.542800
536.000000	114.589100
535.000000	114.644800
534.000000	114.658400
533.000000	114.689500
532.000000	114.740600
531.000000	114.736400
530.000000	114.740800
529.000000	114.768600
528.000000	114.824800
527.000000	114.836900
526.000000	114.827800
525.000000	114.844900
524.000000	114.873900
523.000000	114.891000
522.000000	114.917200
521.000000	114.913400
520.000000	114.897800
519.000000	114.882200
518.000000	114.833700
517.000000	114.808800
516.000000	114.752800
515.000000	114.655100
514.000000	114.563100
513.000000	114.426100
512.000000	114.279600
511.000000	114.130700
510.000000	113.942500
509.000000	113.766600
508.000000	113.588200
507.000000	113.395500
506.000000	113.204800
505.000000	113.029600
504.000000	112.871200
503.000000	112.735500
502.000000	112.639200
501.000000	112.529900
500.000000	112.479200
499.000000	112.489100
498.000000	112.484300
497.000000	112.478400
496.000000	112.531500
495.000000	112.598200
494.000000	112.690800
493.000000	112.798000
492.000000	112.884000
491.000000	112.900200
490.000000	112.948400
489.000000	113.076000
488.000000	113.199900
487.000000	113.318300
486.000000	113.435300
485.000000	113.509800
484.000000	113.617700
483.000000	113.810300
482.000000	114.171200
481.000000	114.456000
480.000000	114.516200
479.000000	114.521800
478.000000	114.449300
477.000000	114.339900
476.000000	114.285600
475.000000	114.289400
474.000000	114.247300
473.000000	114.175000
472.000000	114.171700
471.000000	114.172800
470.000000	114.094000
469.000000	114.010700
468.000000	113.914700
467.000000	113.844700
466.000000	113.715200
465.000000	113.570800
464.000000	113.349700
463.000000	113.200600
462.000000	113.098500
461.000000	112.984200
460.000000	112.860000
459.000000	112.793900
458.000000	112.724700
457.000000	112.703100
456.000000	112.616700
455.000000	112.620900
454.000000	112.707700
453.000000	112.651100
452.000000	112.633800
451.000000	112.630600
450.000000	112.600800
449.000000	112.702800
448.000000	112.696300
447.000000	112.702500
446.000000	112.675000
445.000000	112.830000
444.000000	112.973000
443.000000	113.134700
442.000000	113.088400
441.000000	113.016400
440.000000	113.013600
439.000000	112.952000
438.000000	112.907700
437.000000	112.897400
436.000000	112.832100
435.000000	112.863500
434.000000	112.814700
433.000000	112.784000
432.000000	112.788900
431.000000	112.792100
430.000000	112.754300
429.000000	112.777900
428.000000	112.705900
427.000000	112.711100
426.000000	112.649100
425.000000	112.580600
424.000000	112.470000
423.000000	112.536300
422.000000	112.405600
421.000000	112.367500
420.000000	112.337400
419.000000	112.201700
418.000000	112.088100
417.000000	112.000300
416.000000	112.003600
415.000000	111.858900
414.000000	111.693500
413.000000	111.450100
412.000000	111.311500
411.000000	111.090100
410.000000	110.968800
409.000000	110.656000
408.000000	110.458900
407.000000	110.216700
406.000000	109.937500
405.000000	109.653200
404.000000	109.372900
403.000000	109.055000
402.000000	108.807900
401.000000	108.556700
400.000000	108.237400
399.000000	108.010600
398.000000	107.880000
397.000000	107.571500
396.000000	107.469600
395.000000	107.160800
394.000000	107.023200
393.000000	106.845700
392.000000	106.762100
391.000000	106.579700
390.000000	106.316500
389.000000	106.344900
388.000000	106.132500
387.000000	106.106400
386.000000	106.008900
385.000000	105.864000
384.000000	105.761400
383.000000	105.725700
382.000000	105.603900
381.000000	105.528600
380.000000	105.580100
379.000000	105.809700
378.000000	107.234700
377.000000	106.797400
376.000000	106.918500
375.000000	106.603300
374.000000	106.030900
373.000000	106.073900
372.000000	105.955800
371.000000	105.846400
370.000000	105.707500
369.000000	105.535600
368.000000	105.443600
367.000000	105.229600
366.000000	105.229000
365.000000	105.014600
364.000000	105.114200
363.000000	104.944900
362.000000	104.891500
361.000000	104.826800
360.000000	104.717900
359.000000	104.698200
358.000000	104.611400
357.000000	104.608300
356.000000	104.387900
355.000000	104.392200
354.000000	104.312200
353.000000	104.362300
352.000000	104.166800
351.000000	104.108300
350.000000	104.070400
349.000000	104.061000
348.000000	103.972000
347.000000	103.807500
346.000000	103.844600
345.000000	103.901600
344.000000	103.789300
343.000000	103.721200
342.000000	103.576900
341.000000	103.545200
340.000000	103.477000
339.000000	103.424900
338.000000	103.357600
337.000000	103.360100
336.000000	103.405000
335.000000	103.228400
334.000000	103.105000
333.000000	103.066300
332.000000	102.962600
331.000000	102.945000
330.000000	102.776400
329.000000	102.707100
328.000000	102.637200
327.000000	102.568400
326.000000	102.378700
325.000000	102.328400
