PE UV       SUBTECH     SPECTRUM    ASCII       PEDS        4.00        
   -1
J31.Sample.Raw.asc
18/05/03
13:59:02.00
18/05/03
13:59:02.00
Administrator
longitudinal
325.000000
1
Lambda 850
850L1710193
PerkinElmer UV WinLab 6.4.0.973 / 2.02.06 Lambda 800 UV/VIS, Jan 28 2016 16:58:34

0
0
2
0
0
UV/VIS
1
1
1
RBeamAtt,SBeamAtt,60mm sphere
0
0
0
0
Fix
 
0
0.16
0
0
0
 
 
 
0
 
0
319.2
0
Front
100
 
S:100 R:100
 
0
0
0
 
0
 
 
 
0
 
 
0
0
0
0
0
 
 
 
 
0
0


0
0
#HDR
-1
-1
#GR
nm
%T
1.0
0.0
900.000000
-1.000000
576
8
79.266340
0.012771
#DATA
900.000000	69.720069
899.000000	69.371882
898.000000	71.818233
897.000000	70.333576
896.000000	75.475514
895.000000	74.121864
894.000000	79.266340
893.000000	72.624079
892.000000	71.331750
891.000000	76.515367
890.000000	71.985176
889.000000	74.389032
888.000000	72.628834
887.000000	72.328757
886.000000	73.890569
885.000000	72.112187
884.000000	74.656447
883.000000	73.494106
882.000000	75.024481
881.000000	71.811274
880.000000	74.095074
879.000000	72.470584
878.000000	73.794075
877.000000	73.326249
876.000000	74.011807
875.000000	73.893057
874.000000	72.458379
873.000000	72.111283
872.000000	72.606230
871.000000	72.836178
870.000000	73.634049
869.000000	73.738236
868.000000	73.682441
867.000000	74.047804
866.000000	73.655288
865.000000	72.557284
864.000000	74.106143
863.000000	73.390415
862.000000	73.248642
861.000000	73.304555
860.000000	71.872446
859.000000	72.874382
858.000000	73.223714
857.000000	73.129175
856.000000	72.793941
855.000000	73.299406
854.000000	72.889689
853.000000	72.803221
852.000000	72.755620
851.000000	72.798095
850.000000	72.789524
849.000000	72.616510
848.000000	72.933572
847.000000	72.662212
846.000000	72.437144
845.000000	72.623667
844.000000	72.565856
843.000000	72.288987
842.000000	72.412155
841.000000	72.415098
840.000000	72.265161
839.000000	72.033535
838.000000	72.613979
837.000000	72.407917
836.000000	72.137671
835.000000	71.981595
834.000000	72.152458
833.000000	71.847441
832.000000	71.841574
831.000000	72.003266
830.000000	71.911666
829.000000	71.699620
828.000000	71.656811
827.000000	71.708207
826.000000	71.888260
825.000000	71.774358
824.000000	71.772228
823.000000	71.672546
822.000000	71.749563
821.000000	71.702950
820.000000	71.720284
819.000000	71.741347
818.000000	71.723960
817.000000	71.754079
816.000000	71.670792
815.000000	71.559290
814.000000	71.644674
813.000000	71.623935
812.000000	71.663557
811.000000	71.605790
810.000000	71.691878
809.000000	71.680162
808.000000	71.586366
807.000000	71.522967
806.000000	71.645584
805.000000	71.605782
804.000000	71.408175
803.000000	71.517125
802.000000	71.536792
801.000000	71.632341
800.000000	71.512144
799.000000	71.488818
798.000000	71.493570
797.000000	71.562077
796.000000	71.453020
795.000000	71.502301
794.000000	71.439366
793.000000	71.469113
792.000000	71.529354
791.000000	71.339936
790.000000	71.334374
789.000000	71.285370
788.000000	71.410773
787.000000	71.460977
786.000000	71.275086
785.000000	71.144869
784.000000	71.109909
783.000000	71.282270
782.000000	71.345436
781.000000	71.335341
780.000000	71.319199
779.000000	71.309895
778.000000	71.256743
777.000000	71.174803
776.000000	71.109832
775.000000	71.094365
774.000000	71.155975
773.000000	71.036311
772.000000	71.123113
771.000000	71.196385
770.000000	71.118753
769.000000	71.087606
768.000000	70.998530
767.000000	71.091940
766.000000	71.074968
765.000000	70.973599
764.000000	71.055225
763.000000	70.941704
762.000000	70.957928
761.000000	70.994101
760.000000	70.949653
759.000000	71.030665
758.000000	71.008859
757.000000	70.930212
756.000000	70.960695
755.000000	70.909341
754.000000	70.836268
753.000000	70.944726
752.000000	70.883424
751.000000	70.861373
750.000000	70.883503
749.000000	70.861417
748.000000	70.763901
747.000000	70.644671
746.000000	70.708225
745.000000	70.763930
744.000000	70.806693
743.000000	70.750471
742.000000	70.789100
741.000000	70.717142
740.000000	70.695364
739.000000	70.750529
738.000000	70.764615
737.000000	70.682535
736.000000	70.658125
735.000000	70.494079
734.000000	70.569197
733.000000	70.561726
732.000000	70.553582
731.000000	70.496690
730.000000	70.444546
729.000000	70.424788
728.000000	70.451175
727.000000	70.328348
726.000000	70.312007
725.000000	70.349128
724.000000	70.314779
723.000000	70.278168
722.000000	70.460274
721.000000	70.454951
720.000000	70.394754
719.000000	70.380289
718.000000	70.411007
717.000000	70.342593
716.000000	70.256859
715.000000	70.268703
714.000000	70.311868
713.000000	70.204056
712.000000	70.180843
711.000000	70.203174
710.000000	70.287900
709.000000	70.225531
708.000000	70.216639
707.000000	70.187492
706.000000	70.044670
705.000000	70.139772
704.000000	70.111927
703.000000	70.130953
702.000000	70.043521
701.000000	69.986371
700.000000	69.980551
699.000000	70.023365
698.000000	70.013288
697.000000	70.033415
696.000000	70.033068
695.000000	69.974728
694.000000	70.020612
693.000000	69.873913
692.000000	69.828609
691.000000	69.864337
690.000000	69.846611
689.000000	69.748943
688.000000	69.874268
687.000000	69.723655
686.000000	69.716144
685.000000	69.714765
684.000000	69.714468
683.000000	69.700450
682.000000	69.601885
681.000000	69.629460
680.000000	69.578056
679.000000	69.477661
678.000000	69.565040
677.000000	69.438949
676.000000	69.438961
675.000000	69.481997
674.000000	69.482822
673.000000	69.465428
672.000000	69.391578
671.000000	69.350247
670.000000	69.361595
669.000000	69.244608
668.000000	69.372314
667.000000	69.307033
666.000000	69.241761
665.000000	69.279974
664.000000	69.171658
663.000000	69.221664
662.000000	69.137252
661.000000	69.153358
660.000000	69.127961
659.000000	69.129004
658.000000	68.989716
657.000000	69.053516
656.000000	69.121389
655.000000	68.972867
654.000000	68.960808
653.000000	68.899769
652.000000	68.989271
651.000000	68.874109
650.000000	68.890215
649.000000	68.856172
648.000000	68.772784
647.000000	68.815283
646.000000	68.699441
645.000000	68.752008
644.000000	68.633632
643.000000	68.561211
642.000000	68.604904
641.000000	68.578788
640.000000	68.498258
639.000000	68.455092
638.000000	68.474936
637.000000	68.543413
636.000000	68.458645
635.000000	68.330444
634.000000	68.278708
633.000000	68.349711
632.000000	68.280227
631.000000	68.191778
630.000000	68.257302
629.000000	68.189077
628.000000	68.077958
627.000000	68.069787
626.000000	67.982250
625.000000	68.030179
624.000000	68.038973
623.000000	67.907945
622.000000	67.906425
621.000000	67.921642
620.000000	67.798236
619.000000	67.816501
618.000000	67.712265
617.000000	67.666487
616.000000	67.662051
615.000000	67.580116
614.000000	67.607488
613.000000	67.514216
612.000000	67.569286
611.000000	67.495557
610.000000	67.370124
609.000000	67.401553
608.000000	67.344142
607.000000	67.307426
606.000000	67.314113
605.000000	67.273796
604.000000	67.206477
603.000000	67.193447
602.000000	67.152096
601.000000	67.116081
600.000000	67.073566
599.000000	66.897586
598.000000	66.916856
597.000000	66.876232
596.000000	66.887662
595.000000	66.831871
594.000000	66.764605
593.000000	66.738825
592.000000	66.697775
591.000000	66.709524
590.000000	66.631924
589.000000	66.594263
588.000000	66.560345
587.000000	66.525216
586.000000	66.502415
585.000000	66.457929
584.000000	66.462919
583.000000	66.315521
582.000000	66.272732
581.000000	66.217140
580.000000	66.248138
579.000000	66.200632
578.000000	66.137356
577.000000	66.093410
576.000000	66.013555
575.000000	66.031397
574.000000	65.987764
573.000000	65.903502
572.000000	65.856215
571.000000	65.858252
570.000000	65.803284
569.000000	65.749025
568.000000	65.705866
567.000000	65.690544
566.000000	65.664118
565.000000	65.665467
564.000000	65.604337
563.000000	65.527806
562.000000	65.474353
561.000000	65.427293
560.000000	65.369868
559.000000	65.367567
558.000000	65.308807
557.000000	65.283101
556.000000	65.254547
555.000000	65.211249
554.000000	65.194003
553.000000	65.152512
552.000000	65.127731
551.000000	65.063096
550.000000	64.982086
549.000000	64.936228
548.000000	64.886927
547.000000	64.867749
546.000000	64.855917
545.000000	64.809109
544.000000	64.772448
543.000000	64.698198
542.000000	64.661234
541.000000	64.656121
540.000000	64.585937
539.000000	64.560356
538.000000	64.527114
537.000000	64.491352
536.000000	64.462850
535.000000	64.400043
534.000000	64.363797
533.000000	64.322628
532.000000	64.272629
531.000000	64.261908
530.000000	64.221271
529.000000	64.180359
528.000000	64.128133
527.000000	64.097254
526.000000	64.066193
525.000000	64.028616
524.000000	63.997131
523.000000	63.960101
522.000000	63.892872
521.000000	63.844077
520.000000	63.822110
519.000000	63.794739
518.000000	63.763251
517.000000	63.713060
516.000000	63.682803
515.000000	63.667469
514.000000	63.622144
513.000000	63.590125
512.000000	63.558063
511.000000	63.526028
510.000000	63.492200
509.000000	63.445774
508.000000	63.403593
507.000000	63.357893
506.000000	63.305090
505.000000	63.264755
504.000000	63.229858
503.000000	63.198992
502.000000	63.154834
501.000000	63.115581
500.000000	63.068905
499.000000	62.998459
498.000000	62.943451
497.000000	62.930127
496.000000	62.863109
495.000000	62.780400
494.000000	62.741147
493.000000	62.692956
492.000000	62.628982
491.000000	62.604584
490.000000	62.556973
489.000000	62.470551
488.000000	62.395815
487.000000	62.331592
486.000000	62.291192
485.000000	62.280173
484.000000	62.243911
483.000000	62.192438
482.000000	62.089126
481.000000	62.034930
480.000000	62.019609
479.000000	62.011250
478.000000	61.956255
477.000000	61.944955
476.000000	61.897387
475.000000	61.810632
474.000000	61.758921
473.000000	61.769652
472.000000	61.710126
471.000000	61.625799
470.000000	61.599032
469.000000	61.541417
468.000000	61.478018
467.000000	61.411379
466.000000	61.340085
465.000000	61.302201
464.000000	61.303382
463.000000	61.246583
462.000000	61.138388
461.000000	61.064025
460.000000	61.017012
459.000000	60.949395
458.000000	60.914334
457.000000	60.850855
456.000000	60.804747
455.000000	60.697526
454.000000	60.562765
453.000000	60.526706
452.000000	60.477139
451.000000	60.432245
450.000000	60.392022
449.000000	60.182799
448.000000	60.170565
447.000000	60.077549
446.000000	59.969825
445.000000	59.832669
444.000000	59.791897
443.000000	59.710239
442.000000	59.641661
441.000000	59.584715
440.000000	59.468683
439.000000	59.394787
438.000000	59.345731
437.000000	59.247246
436.000000	59.176865
435.000000	59.075166
434.000000	59.021918
433.000000	58.909242
432.000000	58.794438
431.000000	58.663062
430.000000	58.567522
429.000000	58.456400
428.000000	58.362872
427.000000	58.266134
426.000000	58.169573
425.000000	58.079367
424.000000	57.927892
423.000000	57.834405
422.000000	57.739383
421.000000	57.661245
420.000000	57.515129
419.000000	57.418916
418.000000	57.289222
417.000000	57.163150
416.000000	56.994061
415.000000	56.856629
414.000000	56.779043
413.000000	56.698917
412.000000	56.483562
411.000000	56.358757
410.000000	56.140375
409.000000	56.031485
408.000000	55.873995
407.000000	55.731391
406.000000	55.517362
405.000000	55.428752
404.000000	55.282524
403.000000	55.104489
402.000000	54.902723
401.000000	54.723753
400.000000	54.578732
399.000000	54.464191
398.000000	54.171487
397.000000	54.025462
396.000000	53.762925
395.000000	53.654601
394.000000	53.384874
393.000000	53.192501
392.000000	52.943882
391.000000	52.754230
390.000000	52.617138
389.000000	52.285159
388.000000	52.085930
387.000000	51.793294
386.000000	51.534069
385.000000	51.251228
384.000000	51.023814
383.000000	50.764951
382.000000	50.545387
381.000000	50.269311
380.000000	49.917930
379.000000	49.681929
378.000000	49.341771
377.000000	48.926753
376.000000	48.444937
375.000000	48.048513
374.000000	47.825115
373.000000	47.279491
372.000000	46.719481
371.000000	46.109173
370.000000	45.598751
369.000000	44.939812
368.000000	44.109742
367.000000	43.242586
366.000000	42.308964
365.000000	41.219602
364.000000	39.899462
363.000000	38.591489
362.000000	37.036938
361.000000	35.335143
360.000000	33.440033
359.000000	31.384112
358.000000	29.110881
357.000000	26.680101
356.000000	24.163720
355.000000	21.428612
354.000000	18.650647
353.000000	15.821326
352.000000	13.145263
351.000000	10.532494
350.000000	8.177349
349.000000	6.084893
348.000000	4.313758
347.000000	2.854900
346.000000	1.785360
345.000000	1.031842
344.000000	0.546781
343.000000	0.267158
342.000000	0.122035
341.000000	0.056883
340.000000	0.030345
339.000000	0.015373
338.000000	0.012771
337.000000	0.017415
336.000000	0.019245
335.000000	0.026349
334.000000	0.024247
333.000000	0.026973
332.000000	0.023309
331.000000	0.022925
330.000000	0.029773
329.000000	0.033591
328.000000	0.037024
327.000000	0.038121
326.000000	0.034578
325.000000	0.036354
