PE UV       SUBTECH     SPECTRUM    ASCII       PEDS        4.00        
   -1
J37.Sample.Raw.asc
18/05/03
14:12:47.00
18/05/03
14:12:47.00
Administrator
longitudinal
325.000000
1
Lambda 850
850L1710193
PerkinElmer UV WinLab 6.4.0.973 / 2.02.06 Lambda 800 UV/VIS, Jan 28 2016 16:58:34

0
0
2
0
0
UV/VIS
1
1
1
RBeamAtt,SBeamAtt,60mm sphere
0
0
0
0
Fix
 
0
0.16
0
0
0
 
 
 
0
 
0
319.2
0
Front
100
 
S:100 R:100
 
0
0
0
 
0
 
 
 
0
 
 
0
0
0
0
0
 
 
 
 
0
0


0
0
#HDR
-1
-1
#GR
nm
%T
1.0
0.0
900.000000
-1.000000
576
8
77.852652
0.013633
#DATA
900.000000	72.403961
899.000000	72.311536
898.000000	71.744731
897.000000	73.932446
896.000000	73.556837
895.000000	73.630414
894.000000	77.852652
893.000000	73.360129
892.000000	73.205553
891.000000	75.142580
890.000000	74.544273
889.000000	75.479340
888.000000	74.317114
887.000000	74.021967
886.000000	72.771573
885.000000	73.201043
884.000000	72.856656
883.000000	72.292420
882.000000	73.207314
881.000000	73.684847
880.000000	73.956960
879.000000	74.522993
878.000000	75.631487
877.000000	74.622555
876.000000	73.760456
875.000000	74.922779
874.000000	73.403580
873.000000	72.307188
872.000000	73.372591
871.000000	73.726285
870.000000	73.385514
869.000000	73.482867
868.000000	73.876615
867.000000	74.212993
866.000000	73.585286
865.000000	73.452148
864.000000	75.053155
863.000000	74.148511
862.000000	73.388902
861.000000	73.556298
860.000000	72.566375
859.000000	73.879883
858.000000	73.385632
857.000000	73.350618
856.000000	73.827968
855.000000	73.916060
854.000000	73.654538
853.000000	73.490121
852.000000	73.482376
851.000000	73.763876
850.000000	73.390267
849.000000	73.311922
848.000000	73.879946
847.000000	73.129094
846.000000	73.083473
845.000000	73.063290
844.000000	72.808150
843.000000	72.922363
842.000000	73.023022
841.000000	73.016993
840.000000	72.555981
839.000000	72.563299
838.000000	72.827619
837.000000	72.969160
836.000000	72.799543
835.000000	72.622725
834.000000	72.742442
833.000000	72.665471
832.000000	72.296294
831.000000	72.521609
830.000000	72.564571
829.000000	72.337003
828.000000	72.168469
827.000000	72.377197
826.000000	72.338086
825.000000	72.275093
824.000000	72.283376
823.000000	72.191500
822.000000	72.155468
821.000000	72.045661
820.000000	72.063611
819.000000	72.303104
818.000000	72.277392
817.000000	72.275229
816.000000	72.324491
815.000000	72.083897
814.000000	72.111465
813.000000	72.207011
812.000000	72.171391
811.000000	71.956663
810.000000	72.122345
809.000000	72.250787
808.000000	72.221054
807.000000	72.120480
806.000000	72.143099
805.000000	71.963947
804.000000	71.820350
803.000000	71.965453
802.000000	72.024503
801.000000	72.100161
800.000000	72.084055
799.000000	72.140839
798.000000	72.156004
797.000000	72.148802
796.000000	71.961999
795.000000	71.975664
794.000000	71.900110
793.000000	71.965092
792.000000	72.132681
791.000000	72.078898
790.000000	72.052373
789.000000	72.087989
788.000000	72.179727
787.000000	72.013707
786.000000	71.851654
785.000000	71.863248
784.000000	71.766414
783.000000	71.881542
782.000000	71.961984
781.000000	71.933544
780.000000	71.906085
779.000000	71.925976
778.000000	71.906778
777.000000	71.797937
776.000000	71.791726
775.000000	71.704449
774.000000	71.677170
773.000000	71.657085
772.000000	71.714898
771.000000	71.796144
770.000000	71.744413
769.000000	71.731609
768.000000	71.652355
767.000000	71.783678
766.000000	71.761706
765.000000	71.595614
764.000000	71.672942
763.000000	71.601008
762.000000	71.644669
761.000000	71.661054
760.000000	71.553466
759.000000	71.720877
758.000000	71.723401
757.000000	71.605508
756.000000	71.454955
755.000000	71.325416
754.000000	71.403559
753.000000	71.507579
752.000000	71.496188
751.000000	71.518288
750.000000	71.609956
749.000000	71.664591
748.000000	71.491284
747.000000	71.344115
746.000000	71.293216
745.000000	71.416503
744.000000	71.460255
743.000000	71.355989
742.000000	71.320752
741.000000	71.299629
740.000000	71.366652
739.000000	71.414964
738.000000	71.385821
737.000000	71.415656
736.000000	71.311588
735.000000	71.082835
734.000000	71.134436
733.000000	71.129148
732.000000	71.194574
731.000000	71.197605
730.000000	71.195294
729.000000	71.229075
728.000000	71.206668
727.000000	71.201572
726.000000	71.157881
725.000000	71.139117
724.000000	71.055475
723.000000	71.069303
722.000000	71.090185
721.000000	71.182141
720.000000	71.021530
719.000000	70.967547
718.000000	70.958787
717.000000	70.958051
716.000000	70.898811
715.000000	70.995349
714.000000	71.046705
713.000000	70.899237
712.000000	70.934878
711.000000	70.950887
710.000000	71.017323
709.000000	71.028167
708.000000	70.938481
707.000000	70.932206
706.000000	70.891704
705.000000	70.816895
704.000000	70.847938
703.000000	70.811958
702.000000	70.796843
701.000000	70.794571
700.000000	70.773452
699.000000	70.697652
698.000000	70.757524
697.000000	70.767617
696.000000	70.726471
695.000000	70.705355
694.000000	70.713423
693.000000	70.629102
692.000000	70.594102
691.000000	70.509290
690.000000	70.575402
689.000000	70.463675
688.000000	70.522568
687.000000	70.420149
686.000000	70.426109
685.000000	70.432879
684.000000	70.442765
683.000000	70.382732
682.000000	70.341441
681.000000	70.362091
680.000000	70.297831
679.000000	70.288728
678.000000	70.323126
677.000000	70.216663
676.000000	70.201683
675.000000	70.216171
674.000000	70.335271
673.000000	70.202247
672.000000	70.144189
671.000000	70.147310
670.000000	70.169074
669.000000	70.085101
668.000000	70.123704
667.000000	70.161466
666.000000	69.969162
665.000000	70.071503
664.000000	69.996738
663.000000	69.945106
662.000000	69.937582
661.000000	69.973742
660.000000	69.974816
659.000000	69.907057
658.000000	69.863850
657.000000	69.863242
656.000000	69.922814
655.000000	69.849348
654.000000	69.823388
653.000000	69.765665
652.000000	69.818344
651.000000	69.728116
650.000000	69.745962
649.000000	69.732189
648.000000	69.667027
647.000000	69.559830
646.000000	69.600241
645.000000	69.617430
644.000000	69.500611
643.000000	69.438011
642.000000	69.501261
641.000000	69.512263
640.000000	69.520983
639.000000	69.353756
638.000000	69.384853
637.000000	69.316734
636.000000	69.363227
635.000000	69.185639
634.000000	69.227491
633.000000	69.278016
632.000000	69.209638
631.000000	69.139812
630.000000	69.223209
629.000000	69.056216
628.000000	69.092889
627.000000	69.125972
626.000000	68.899437
625.000000	69.029014
624.000000	69.038321
623.000000	68.890115
622.000000	68.885905
621.000000	68.913544
620.000000	68.885673
619.000000	68.848789
618.000000	68.759789
617.000000	68.684119
616.000000	68.749874
615.000000	68.676220
614.000000	68.679980
613.000000	68.534075
612.000000	68.623315
611.000000	68.580294
610.000000	68.582818
609.000000	68.522798
608.000000	68.472498
607.000000	68.428237
606.000000	68.453899
605.000000	68.351352
604.000000	68.330803
603.000000	68.257397
602.000000	68.281531
601.000000	68.226898
600.000000	68.217774
599.000000	68.133025
598.000000	68.122512
597.000000	68.035137
596.000000	68.042298
595.000000	68.020252
594.000000	67.942670
593.000000	67.916077
592.000000	67.917735
591.000000	67.879545
590.000000	67.850230
589.000000	67.845082
588.000000	67.740488
587.000000	67.712667
586.000000	67.712565
585.000000	67.684318
584.000000	67.712505
583.000000	67.630213
582.000000	67.591788
581.000000	67.519988
580.000000	67.526605
579.000000	67.530765
578.000000	67.416151
577.000000	67.351608
576.000000	67.360877
575.000000	67.385813
574.000000	67.341448
573.000000	67.276129
572.000000	67.208584
571.000000	67.170351
570.000000	67.169953
569.000000	67.149119
568.000000	67.174526
567.000000	67.112307
566.000000	67.072425
565.000000	67.071429
564.000000	67.012868
563.000000	66.926946
562.000000	66.855750
561.000000	66.831353
560.000000	66.820847
559.000000	66.789564
558.000000	66.705530
557.000000	66.682356
556.000000	66.682094
555.000000	66.648822
554.000000	66.608831
553.000000	66.599162
552.000000	66.569559
551.000000	66.503974
550.000000	66.421254
549.000000	66.368553
548.000000	66.335334
547.000000	66.337597
546.000000	66.309592
545.000000	66.248873
544.000000	66.248500
543.000000	66.198272
542.000000	66.180051
541.000000	66.137671
540.000000	66.088676
539.000000	66.095135
538.000000	66.048437
537.000000	65.989744
536.000000	65.947110
535.000000	65.880616
534.000000	65.861899
533.000000	65.839593
532.000000	65.792841
531.000000	65.785575
530.000000	65.746012
529.000000	65.705428
528.000000	65.664212
527.000000	65.631692
526.000000	65.602842
525.000000	65.577575
524.000000	65.528462
523.000000	65.503390
522.000000	65.469399
521.000000	65.443108
520.000000	65.391679
519.000000	65.357122
518.000000	65.342839
517.000000	65.296563
516.000000	65.246513
515.000000	65.220910
514.000000	65.178840
513.000000	65.145976
512.000000	65.123434
511.000000	65.082138
510.000000	65.039998
509.000000	64.988142
508.000000	64.929984
507.000000	64.900018
506.000000	64.875341
505.000000	64.838945
504.000000	64.793499
503.000000	64.749702
502.000000	64.703052
501.000000	64.685830
500.000000	64.643152
499.000000	64.558166
498.000000	64.528383
497.000000	64.510786
496.000000	64.463372
495.000000	64.406181
494.000000	64.313857
493.000000	64.250873
492.000000	64.205025
491.000000	64.200861
490.000000	64.178953
489.000000	64.080353
488.000000	64.027000
487.000000	63.971927
486.000000	63.893867
485.000000	63.895452
484.000000	63.878163
483.000000	63.825858
482.000000	63.720711
481.000000	63.647166
480.000000	63.667237
479.000000	63.654867
478.000000	63.571293
477.000000	63.495420
476.000000	63.446751
475.000000	63.406318
474.000000	63.360184
473.000000	63.346880
472.000000	63.295107
471.000000	63.224516
470.000000	63.162480
469.000000	63.109164
468.000000	63.044629
467.000000	62.994764
466.000000	62.912874
465.000000	62.845996
464.000000	62.854158
463.000000	62.774491
462.000000	62.695261
461.000000	62.599726
460.000000	62.519316
459.000000	62.477138
458.000000	62.424030
457.000000	62.361461
456.000000	62.296888
455.000000	62.187125
454.000000	62.059558
453.000000	62.018658
452.000000	61.967633
451.000000	61.933879
450.000000	61.876115
449.000000	61.712752
448.000000	61.625981
447.000000	61.559149
446.000000	61.454981
445.000000	61.279801
444.000000	61.199667
443.000000	61.129521
442.000000	61.054361
441.000000	60.970001
440.000000	60.861525
439.000000	60.798835
438.000000	60.719774
437.000000	60.593158
436.000000	60.526304
435.000000	60.366372
434.000000	60.266171
433.000000	60.215811
432.000000	60.065397
431.000000	59.933630
430.000000	59.783707
429.000000	59.673216
428.000000	59.570706
427.000000	59.458385
426.000000	59.317030
425.000000	59.207981
424.000000	59.076287
423.000000	58.914146
422.000000	58.796092
421.000000	58.741629
420.000000	58.562598
419.000000	58.410701
418.000000	58.267916
417.000000	58.146541
416.000000	57.918495
415.000000	57.736130
414.000000	57.615618
413.000000	57.514708
412.000000	57.275034
411.000000	57.106889
410.000000	56.974122
409.000000	56.783545
408.000000	56.553976
407.000000	56.412867
406.000000	56.213849
405.000000	56.030649
404.000000	55.912296
403.000000	55.695383
402.000000	55.473270
401.000000	55.273511
400.000000	55.035321
399.000000	54.856931
398.000000	54.618372
397.000000	54.422965
396.000000	54.172157
395.000000	53.991292
394.000000	53.693218
393.000000	53.433596
392.000000	53.150322
391.000000	52.908856
390.000000	52.730479
389.000000	52.415302
388.000000	52.195039
387.000000	51.866711
386.000000	51.558218
385.000000	51.233753
384.000000	50.942877
383.000000	50.598956
382.000000	50.269924
381.000000	49.908271
380.000000	49.433084
379.000000	49.110904
378.000000	48.491673
377.000000	48.042930
376.000000	47.371877
375.000000	46.863652
374.000000	46.346207
373.000000	45.515721
372.000000	44.751396
371.000000	43.784106
370.000000	42.777192
369.000000	41.738428
368.000000	40.491979
367.000000	39.013167
366.000000	37.452603
365.000000	35.694751
364.000000	33.636749
363.000000	31.511679
362.000000	29.181774
361.000000	26.641660
360.000000	24.072580
359.000000	21.287568
358.000000	18.462137
357.000000	15.587004
356.000000	12.829073
355.000000	10.182466
354.000000	7.829669
353.000000	5.730805
352.000000	4.021435
351.000000	2.654832
350.000000	1.653784
349.000000	0.957515
348.000000	0.509656
347.000000	0.256340
346.000000	0.112091
345.000000	0.058036
344.000000	0.028712
343.000000	0.024103
342.000000	0.021530
341.000000	0.020860
340.000000	0.021454
339.000000	0.013633
338.000000	0.017802
337.000000	0.018963
336.000000	0.020889
335.000000	0.026059
334.000000	0.025120
333.000000	0.020472
332.000000	0.021464
331.000000	0.030016
330.000000	0.031330
329.000000	0.024633
328.000000	0.025917
327.000000	0.030419
326.000000	0.039461
325.000000	0.030490
