PE UV       SUBTECH     SPECTRUM    ASCII       PEDS        4.00        
   -1
J44.Sample.Raw.asc
18/05/03
14:27:13.00
18/05/03
14:27:13.00
Administrator
longitudinal
325.000000
1
Lambda 850
850L1710193
PerkinElmer UV WinLab 6.4.0.973 / 2.02.06 Lambda 800 UV/VIS, Jan 28 2016 16:58:34

0
0
2
0
0
UV/VIS
1
1
1
RBeamAtt,SBeamAtt,60mm sphere
0
0
0
0
Fix
 
0
0.16
0
0
0
 
 
 
0
 
0
319.2
0
Front
100
 
S:100 R:100
 
0
0
0
 
0
 
 
 
0
 
 
0
0
0
0
0
 
 
 
 
0
0


0
0
#HDR
-1
-1
#GR
nm
%T
1.0
0.0
900.000000
-1.000000
576
8
81.128113
0.013633
#DATA
900.000000	71.970865
899.000000	72.341941
898.000000	77.153295
897.000000	75.049339
896.000000	77.083403
895.000000	76.600406
894.000000	81.128113
893.000000	73.354336
892.000000	73.684129
891.000000	75.875940
890.000000	75.232287
889.000000	76.334463
888.000000	71.130472
887.000000	76.372294
886.000000	71.372181
885.000000	73.398039
884.000000	73.777603
883.000000	73.155699
882.000000	74.976611
881.000000	75.458693
880.000000	76.577570
879.000000	73.756387
878.000000	75.024068
877.000000	72.891309
876.000000	73.340673
875.000000	73.725558
874.000000	74.847044
873.000000	74.370398
872.000000	74.970359
871.000000	73.746945
870.000000	74.329034
869.000000	75.201382
868.000000	74.761096
867.000000	75.292910
866.000000	73.821058
865.000000	73.890329
864.000000	74.390645
863.000000	73.972815
862.000000	74.434280
861.000000	74.292993
860.000000	72.561797
859.000000	73.977146
858.000000	73.808814
857.000000	74.626278
856.000000	74.738373
855.000000	74.060378
854.000000	74.193812
853.000000	74.392979
852.000000	74.130691
851.000000	74.159521
850.000000	73.882625
849.000000	73.791642
848.000000	74.112170
847.000000	73.868090
846.000000	73.673771
845.000000	73.775314
844.000000	73.571932
843.000000	73.251688
842.000000	73.410300
841.000000	73.616183
840.000000	73.295206
839.000000	73.140367
838.000000	73.657117
837.000000	73.489700
836.000000	73.275583
835.000000	73.084110
834.000000	73.218244
833.000000	73.212615
832.000000	72.877492
831.000000	73.139782
830.000000	73.118294
829.000000	72.579828
828.000000	72.695446
827.000000	72.916705
826.000000	72.912419
825.000000	73.009043
824.000000	72.826680
823.000000	72.705353
822.000000	72.759559
821.000000	72.720729
820.000000	72.797400
819.000000	72.773440
818.000000	72.756564
817.000000	72.816142
816.000000	72.768162
815.000000	72.578092
814.000000	72.614284
813.000000	72.730743
812.000000	72.676380
811.000000	72.445224
810.000000	72.484848
809.000000	72.550173
808.000000	72.608653
807.000000	72.536672
806.000000	72.414212
805.000000	72.502242
804.000000	72.436018
803.000000	72.488880
802.000000	72.516739
801.000000	72.563027
800.000000	72.425456
799.000000	72.366351
798.000000	72.471160
797.000000	72.598861
796.000000	72.387674
795.000000	72.291660
794.000000	72.311825
793.000000	72.351488
792.000000	72.404195
791.000000	72.339752
790.000000	72.423458
789.000000	72.402416
788.000000	72.396766
787.000000	72.362861
786.000000	72.109906
785.000000	72.129199
784.000000	72.196251
783.000000	72.226873
782.000000	72.192536
781.000000	72.237581
780.000000	72.317538
779.000000	72.297061
778.000000	72.264077
777.000000	72.077849
776.000000	72.060038
775.000000	72.177475
774.000000	72.114879
773.000000	71.993922
772.000000	72.103809
771.000000	72.073282
770.000000	71.962674
769.000000	72.066827
768.000000	72.109109
767.000000	72.058609
766.000000	71.999498
765.000000	71.865314
764.000000	71.884700
763.000000	71.859147
762.000000	71.909479
761.000000	71.856417
760.000000	71.758275
759.000000	71.922139
758.000000	71.857766
757.000000	71.750129
756.000000	71.733477
755.000000	71.713763
754.000000	71.742419
753.000000	71.777418
752.000000	71.702801
751.000000	71.687845
750.000000	71.789500
749.000000	71.879693
748.000000	71.661846
747.000000	71.519871
746.000000	71.517419
745.000000	71.611165
744.000000	71.599224
743.000000	71.563442
742.000000	71.638905
741.000000	71.519505
740.000000	71.475995
739.000000	71.530515
738.000000	71.488513
737.000000	71.553196
736.000000	71.512324
735.000000	71.317944
734.000000	71.427078
733.000000	71.343044
732.000000	71.340456
731.000000	71.368008
730.000000	71.389802
729.000000	71.336457
728.000000	71.345022
727.000000	71.321054
726.000000	71.270899
725.000000	71.204333
724.000000	71.189718
723.000000	71.196434
722.000000	71.254203
721.000000	71.315173
720.000000	71.245348
719.000000	71.157847
718.000000	71.170300
717.000000	71.137366
716.000000	71.118336
715.000000	71.106418
714.000000	71.125976
713.000000	71.082470
712.000000	71.062505
711.000000	71.042917
710.000000	71.157956
709.000000	71.095787
708.000000	70.990838
707.000000	71.018554
706.000000	70.920460
705.000000	70.952060
704.000000	70.957773
703.000000	70.952033
702.000000	70.908151
701.000000	70.934056
700.000000	70.855605
699.000000	70.914165
698.000000	70.915946
697.000000	70.910785
696.000000	70.845733
695.000000	70.787027
694.000000	70.842918
693.000000	70.739609
692.000000	70.774687
691.000000	70.667257
690.000000	70.575923
689.000000	70.496762
688.000000	70.639535
687.000000	70.550818
686.000000	70.477582
685.000000	70.558545
684.000000	70.556412
683.000000	70.448480
682.000000	70.299126
681.000000	70.348386
680.000000	70.312660
679.000000	70.259774
678.000000	70.329375
677.000000	70.324431
676.000000	70.199948
675.000000	70.186387
674.000000	70.255335
673.000000	70.168108
672.000000	70.204829
671.000000	70.171203
670.000000	70.134053
669.000000	70.083884
668.000000	70.146921
667.000000	70.068221
666.000000	70.018965
665.000000	70.013455
664.000000	69.982211
663.000000	69.957466
662.000000	69.906251
661.000000	69.961641
660.000000	69.909942
659.000000	69.915244
658.000000	69.747079
657.000000	69.894791
656.000000	69.813783
655.000000	69.736934
654.000000	69.672973
653.000000	69.619070
652.000000	69.651117
651.000000	69.579403
650.000000	69.609270
649.000000	69.487480
648.000000	69.420655
647.000000	69.454139
646.000000	69.400819
645.000000	69.383048
644.000000	69.294461
643.000000	69.184694
642.000000	69.213152
641.000000	69.226921
640.000000	69.175622
639.000000	69.106809
638.000000	69.101094
637.000000	69.072757
636.000000	69.068836
635.000000	68.918527
634.000000	68.889925
633.000000	68.923806
632.000000	68.860137
631.000000	68.833211
630.000000	68.825601
629.000000	68.675657
628.000000	68.610545
627.000000	68.595170
626.000000	68.499118
625.000000	68.605804
624.000000	68.526266
623.000000	68.448252
622.000000	68.407711
621.000000	68.397692
620.000000	68.251838
619.000000	68.281206
618.000000	68.262889
617.000000	68.158861
616.000000	68.111352
615.000000	68.115478
614.000000	68.050148
613.000000	67.966223
612.000000	67.944687
611.000000	67.959831
610.000000	67.855517
609.000000	67.787416
608.000000	67.770297
607.000000	67.693756
606.000000	67.725992
605.000000	67.634149
604.000000	67.568609
603.000000	67.457596
602.000000	67.450556
601.000000	67.392142
600.000000	67.380230
599.000000	67.257623
598.000000	67.212072
597.000000	67.202716
596.000000	67.149438
595.000000	67.151267
594.000000	67.025307
593.000000	66.999891
592.000000	66.981515
591.000000	66.939935
590.000000	66.894555
589.000000	66.910476
588.000000	66.774215
587.000000	66.669617
586.000000	66.676220
585.000000	66.642120
584.000000	66.634302
583.000000	66.558541
582.000000	66.480187
581.000000	66.406728
580.000000	66.377887
579.000000	66.346398
578.000000	66.230176
577.000000	66.188125
576.000000	66.181280
575.000000	66.133627
574.000000	66.076255
573.000000	65.999230
572.000000	65.955173
571.000000	65.964876
570.000000	65.906841
569.000000	65.831713
568.000000	65.833160
567.000000	65.774245
566.000000	65.713697
565.000000	65.686969
564.000000	65.651291
563.000000	65.563682
562.000000	65.467349
561.000000	65.408836
560.000000	65.392006
559.000000	65.341401
558.000000	65.289390
557.000000	65.275052
556.000000	65.226463
555.000000	65.159813
554.000000	65.138880
553.000000	65.102911
552.000000	65.036485
551.000000	64.966355
550.000000	64.925257
549.000000	64.870499
548.000000	64.810916
547.000000	64.779750
546.000000	64.723423
545.000000	64.670786
544.000000	64.666435
543.000000	64.625851
542.000000	64.568978
541.000000	64.510237
540.000000	64.462637
539.000000	64.436955
538.000000	64.429384
537.000000	64.369650
536.000000	64.311440
535.000000	64.230039
534.000000	64.202361
533.000000	64.171175
532.000000	64.070434
531.000000	64.027806
530.000000	64.019163
529.000000	63.981263
528.000000	63.917812
527.000000	63.888959
526.000000	63.871031
525.000000	63.831219
524.000000	63.756954
523.000000	63.712562
522.000000	63.666275
521.000000	63.644275
520.000000	63.604525
519.000000	63.546398
518.000000	63.501829
517.000000	63.446530
516.000000	63.429302
515.000000	63.399360
514.000000	63.340814
513.000000	63.311605
512.000000	63.279623
511.000000	63.232242
510.000000	63.187222
509.000000	63.168012
508.000000	63.127860
507.000000	63.070051
506.000000	63.014731
505.000000	62.968904
504.000000	62.932085
503.000000	62.884096
502.000000	62.830968
501.000000	62.798598
500.000000	62.745201
499.000000	62.706253
498.000000	62.644920
497.000000	62.589795
496.000000	62.553507
495.000000	62.505351
494.000000	62.446091
493.000000	62.367152
492.000000	62.269409
491.000000	62.253920
490.000000	62.216729
489.000000	62.121582
488.000000	62.042723
487.000000	61.989635
486.000000	61.939449
485.000000	61.946017
484.000000	61.887188
483.000000	61.806357
482.000000	61.739125
481.000000	61.677850
480.000000	61.678086
479.000000	61.624686
478.000000	61.566475
477.000000	61.522968
476.000000	61.474499
475.000000	61.422669
474.000000	61.359437
473.000000	61.344252
472.000000	61.314581
471.000000	61.250841
470.000000	61.192175
469.000000	61.137244
468.000000	61.098260
467.000000	61.003630
466.000000	60.956055
465.000000	60.888890
464.000000	60.881943
463.000000	60.838370
462.000000	60.766146
461.000000	60.672466
460.000000	60.625199
459.000000	60.536696
458.000000	60.464832
457.000000	60.376955
456.000000	60.331549
455.000000	60.288721
454.000000	60.167495
453.000000	60.116413
452.000000	60.040325
451.000000	59.978549
450.000000	59.882434
449.000000	59.813864
448.000000	59.735945
447.000000	59.618198
446.000000	59.522964
445.000000	59.377648
444.000000	59.373744
443.000000	59.303733
442.000000	59.231362
441.000000	59.150088
440.000000	59.045106
439.000000	58.963011
438.000000	58.896249
437.000000	58.772744
436.000000	58.692252
435.000000	58.615407
434.000000	58.547867
433.000000	58.446145
432.000000	58.278962
431.000000	58.162761
430.000000	58.117606
429.000000	57.950095
428.000000	57.862898
427.000000	57.768135
426.000000	57.682396
425.000000	57.602198
424.000000	57.500845
423.000000	57.332790
422.000000	57.224373
421.000000	57.082163
420.000000	56.939897
419.000000	56.912239
418.000000	56.781853
417.000000	56.553063
416.000000	56.461310
415.000000	56.305846
414.000000	56.198615
413.000000	56.081601
412.000000	55.860356
411.000000	55.771756
410.000000	55.539305
409.000000	55.415341
408.000000	55.256027
407.000000	55.109979
406.000000	54.975873
405.000000	54.802687
404.000000	54.630900
403.000000	54.470772
402.000000	54.252495
401.000000	54.018131
400.000000	53.843403
399.000000	53.674454
398.000000	53.360493
397.000000	53.226459
396.000000	52.986054
395.000000	52.837978
394.000000	52.537861
393.000000	52.281842
392.000000	52.043562
391.000000	51.855091
390.000000	51.638363
389.000000	51.387984
388.000000	51.129202
387.000000	50.751604
386.000000	50.451802
385.000000	50.255800
384.000000	49.915186
383.000000	49.646964
382.000000	49.303672
381.000000	48.920577
380.000000	48.544281
379.000000	48.169969
378.000000	47.684845
377.000000	47.414263
376.000000	46.683221
375.000000	46.184593
374.000000	45.830602
373.000000	45.083475
372.000000	44.377844
371.000000	43.607340
370.000000	42.799234
369.000000	41.938265
368.000000	40.823151
367.000000	39.612333
366.000000	38.248392
365.000000	36.761079
364.000000	34.914693
363.000000	33.124906
362.000000	31.009376
361.000000	28.847108
360.000000	26.513901
359.000000	23.987805
358.000000	21.291561
357.000000	18.518798
356.000000	15.811794
355.000000	13.131345
354.000000	10.513727
353.000000	8.163484
352.000000	6.079672
351.000000	4.305805
350.000000	2.906782
349.000000	1.839882
348.000000	1.084811
347.000000	0.595429
346.000000	0.299197
345.000000	0.133492
344.000000	0.062241
343.000000	0.035287
342.000000	0.025295
341.000000	0.023082
340.000000	0.020681
339.000000	0.013633
338.000000	0.024091
337.000000	0.024284
336.000000	0.021856
335.000000	0.023346
334.000000	0.030163
333.000000	0.031436
332.000000	0.026029
331.000000	0.021273
330.000000	0.023838
329.000000	0.031351
328.000000	0.035660
327.000000	0.029736
326.000000	0.030280
325.000000	0.036647
