PE UV       SUBTECH     SPECTRUM    ASCII       PEDS        4.00        
   -1
J34.Sample.Raw.asc
18/05/25
12:29:52.00
18/05/25
12:29:52.00
Administrator
longitudinal
325.000000
1
Lambda 850
850L1710193
PerkinElmer UV WinLab 6.4.0.973 / 2.02.06 Lambda 800 UV/VIS, Jan 28 2016 16:58:34

0
0
2
0
0
UV/VIS
1
1
1
RBeamAtt,SBeamAtt,60mm sphere
0
0
0
0
Fix
 
0
0.16
0
0
0
 
 
 
0
 
0
319.2
0
Front
100
 
S:100 R:100
 
0
0
0
 
0
 
 
 
0
 
 
0
0
0
0
0
 
 
 
 
0
0


0
0
#HDR
-1
-1
#GR
nm
%T
1.0
0.0
900.000000
-1.000000
576
8
78.826930
0.013448
#DATA
900.000000	72.053675
899.000000	73.641385
898.000000	76.129503
897.000000	72.204810
896.000000	76.444385
895.000000	78.826930
894.000000	75.366372
893.000000	78.306851
892.000000	76.019023
891.000000	75.911313
890.000000	76.306274
889.000000	76.034060
888.000000	77.458533
887.000000	75.830892
886.000000	73.818487
885.000000	73.223445
884.000000	74.482321
883.000000	73.557384
882.000000	76.373075
881.000000	75.161204
880.000000	76.074522
879.000000	75.460328
878.000000	74.847040
877.000000	76.110609
876.000000	74.963772
875.000000	76.157556
874.000000	75.799129
873.000000	75.315986
872.000000	75.231518
871.000000	75.398062
870.000000	75.220319
869.000000	76.653674
868.000000	75.361871
867.000000	75.896607
866.000000	74.156671
865.000000	75.413876
864.000000	75.739566
863.000000	74.708754
862.000000	75.167376
861.000000	75.532823
860.000000	74.334881
859.000000	74.918175
858.000000	74.711886
857.000000	75.136920
856.000000	75.029638
855.000000	75.091084
854.000000	74.936061
853.000000	74.676322
852.000000	74.885110
851.000000	74.684861
850.000000	74.662870
849.000000	75.020728
848.000000	74.860370
847.000000	74.695960
846.000000	74.462691
845.000000	74.481122
844.000000	74.524828
843.000000	74.331898
842.000000	74.351679
841.000000	74.170295
840.000000	74.272208
839.000000	74.260356
838.000000	74.158415
837.000000	74.003547
836.000000	73.877455
835.000000	73.855265
834.000000	73.946810
833.000000	73.855258
832.000000	73.866519
831.000000	73.743046
830.000000	73.713925
829.000000	73.731510
828.000000	73.746717
827.000000	73.452819
826.000000	73.441071
825.000000	73.540763
824.000000	73.649406
823.000000	73.634559
822.000000	73.752550
821.000000	73.688320
820.000000	73.385216
819.000000	73.442198
818.000000	73.402422
817.000000	73.456827
816.000000	73.531232
815.000000	73.529108
814.000000	73.391662
813.000000	73.330698
812.000000	73.318373
811.000000	73.311069
810.000000	73.202955
809.000000	73.377543
808.000000	73.255023
807.000000	73.161728
806.000000	73.242662
805.000000	73.077743
804.000000	73.046324
803.000000	73.183210
802.000000	73.156250
801.000000	73.131679
800.000000	73.214546
799.000000	73.238593
798.000000	73.142520
797.000000	72.983362
796.000000	73.112826
795.000000	73.167528
794.000000	73.145677
793.000000	73.029344
792.000000	73.009666
791.000000	72.896827
790.000000	72.949803
789.000000	73.011363
788.000000	72.935620
787.000000	72.948599
786.000000	73.071524
785.000000	73.034160
784.000000	72.970842
783.000000	72.934362
782.000000	72.941047
781.000000	72.945848
780.000000	72.870282
779.000000	72.732374
778.000000	72.801861
777.000000	72.766180
776.000000	72.738905
775.000000	72.749958
774.000000	72.862752
773.000000	72.952876
772.000000	72.884468
771.000000	72.804897
770.000000	72.650769
769.000000	72.585534
768.000000	72.680999
767.000000	72.753115
766.000000	72.615632
765.000000	72.526233
764.000000	72.666606
763.000000	72.704293
762.000000	72.509034
761.000000	72.330858
760.000000	72.446339
759.000000	72.645502
758.000000	72.563943
757.000000	72.506830
756.000000	72.477356
755.000000	72.320954
754.000000	72.413746
753.000000	72.460034
752.000000	72.319534
751.000000	72.311879
750.000000	72.367287
749.000000	72.337135
748.000000	72.309598
747.000000	72.262616
746.000000	72.116054
745.000000	72.194618
744.000000	72.166243
743.000000	72.097351
742.000000	72.144085
741.000000	72.190665
740.000000	72.072939
739.000000	72.072997
738.000000	72.024519
737.000000	72.022379
736.000000	72.095163
735.000000	72.057649
734.000000	72.026002
733.000000	72.122530
732.000000	71.972465
731.000000	71.949197
730.000000	72.027226
729.000000	72.007178
728.000000	72.047901
727.000000	71.940571
726.000000	71.962981
725.000000	72.000355
724.000000	71.866574
723.000000	71.852460
722.000000	71.796234
721.000000	71.776590
720.000000	71.735890
719.000000	71.748464
718.000000	71.686849
717.000000	71.702127
716.000000	71.794675
715.000000	71.627231
714.000000	71.556548
713.000000	71.609363
712.000000	71.631311
711.000000	71.709125
710.000000	71.687381
709.000000	71.565697
708.000000	71.495851
707.000000	71.568255
706.000000	71.568686
705.000000	71.573953
704.000000	71.461731
703.000000	71.473070
702.000000	71.528303
701.000000	71.419860
700.000000	71.382218
699.000000	71.530835
698.000000	71.437211
697.000000	71.389879
696.000000	71.416413
695.000000	71.296749
694.000000	71.278946
693.000000	71.295384
692.000000	71.310831
691.000000	71.381865
690.000000	71.171237
689.000000	71.054436
688.000000	71.023086
687.000000	71.140991
686.000000	71.088357
685.000000	71.000291
684.000000	70.989870
683.000000	70.992782
682.000000	71.078694
681.000000	70.992428
680.000000	70.902266
679.000000	70.870813
678.000000	70.938078
677.000000	70.847366
676.000000	70.699890
675.000000	70.744347
674.000000	70.797566
673.000000	70.770636
672.000000	70.652198
671.000000	70.604476
670.000000	70.646791
669.000000	70.712203
668.000000	70.590822
667.000000	70.658101
666.000000	70.479183
665.000000	70.565232
664.000000	70.534789
663.000000	70.447767
662.000000	70.441533
661.000000	70.480564
660.000000	70.392428
659.000000	70.349772
658.000000	70.263222
657.000000	70.282820
656.000000	70.284757
655.000000	70.207106
654.000000	70.287213
653.000000	70.095926
652.000000	70.047175
651.000000	70.069090
650.000000	69.982847
649.000000	70.064108
648.000000	69.929723
647.000000	69.964748
646.000000	69.838537
645.000000	69.868069
644.000000	69.816284
643.000000	69.700030
642.000000	69.601434
641.000000	69.587028
640.000000	69.641269
639.000000	69.504025
638.000000	69.516894
637.000000	69.379861
636.000000	69.409287
635.000000	69.401200
634.000000	69.434458
633.000000	69.300394
632.000000	69.346042
631.000000	69.313614
630.000000	69.219228
629.000000	69.111422
628.000000	69.071849
627.000000	69.051582
626.000000	68.990514
625.000000	68.920222
624.000000	68.907251
623.000000	68.785277
622.000000	68.861005
621.000000	68.697322
620.000000	68.686456
619.000000	68.615776
618.000000	68.584651
617.000000	68.505426
616.000000	68.541866
615.000000	68.473279
614.000000	68.389381
613.000000	68.337425
612.000000	68.305607
611.000000	68.269393
610.000000	68.219709
609.000000	68.126378
608.000000	68.076222
607.000000	68.098701
606.000000	68.007602
605.000000	67.903211
604.000000	67.888867
603.000000	67.826375
602.000000	67.826188
601.000000	67.692539
600.000000	67.665768
599.000000	67.646649
598.000000	67.597652
597.000000	67.560336
596.000000	67.499163
595.000000	67.423036
594.000000	67.366269
593.000000	67.323510
592.000000	67.249871
591.000000	67.229498
590.000000	67.187085
589.000000	67.100423
588.000000	67.014307
587.000000	66.987658
586.000000	66.938576
585.000000	66.849244
584.000000	66.845234
583.000000	66.799111
582.000000	66.759374
581.000000	66.683604
580.000000	66.632909
579.000000	66.558724
578.000000	66.525626
577.000000	66.477909
576.000000	66.408211
575.000000	66.364543
574.000000	66.305997
573.000000	66.243171
572.000000	66.180807
571.000000	66.163130
570.000000	66.087285
569.000000	66.047066
568.000000	66.033664
567.000000	65.975668
566.000000	65.893238
565.000000	65.853066
564.000000	65.835498
563.000000	65.757622
562.000000	65.723672
561.000000	65.656118
560.000000	65.585719
559.000000	65.537300
558.000000	65.456100
557.000000	65.420736
556.000000	65.371279
555.000000	65.403426
554.000000	65.355836
553.000000	65.229925
552.000000	65.179503
551.000000	65.152146
550.000000	65.092528
549.000000	65.052256
548.000000	64.995708
547.000000	64.943577
546.000000	64.914437
545.000000	64.894308
544.000000	64.807094
543.000000	64.744444
542.000000	64.725883
541.000000	64.669146
540.000000	64.608503
539.000000	64.530836
538.000000	64.510754
537.000000	64.464145
536.000000	64.409686
535.000000	64.368626
534.000000	64.337634
533.000000	64.302263
532.000000	64.242072
531.000000	64.198394
530.000000	64.161687
529.000000	64.137551
528.000000	64.098818
527.000000	64.033772
526.000000	63.954277
525.000000	63.911707
524.000000	63.883807
523.000000	63.831359
522.000000	63.799359
521.000000	63.755873
520.000000	63.687544
519.000000	63.663809
518.000000	63.623003
517.000000	63.563225
516.000000	63.532410
515.000000	63.480275
514.000000	63.442085
513.000000	63.403199
512.000000	63.346604
511.000000	63.302044
510.000000	63.254594
509.000000	63.209775
508.000000	63.146337
507.000000	63.087964
506.000000	63.058050
505.000000	63.024696
504.000000	62.997391
503.000000	62.952249
502.000000	62.913977
501.000000	62.864246
500.000000	62.777357
499.000000	62.717549
498.000000	62.723067
497.000000	62.671476
496.000000	62.626197
495.000000	62.541700
494.000000	62.463025
493.000000	62.418879
492.000000	62.378338
491.000000	62.355985
490.000000	62.289276
489.000000	62.214071
488.000000	62.196876
487.000000	62.158173
486.000000	62.022013
485.000000	61.988611
484.000000	61.980665
483.000000	61.875611
482.000000	61.851649
481.000000	61.846240
480.000000	61.828624
479.000000	61.766311
478.000000	61.640874
477.000000	61.601411
476.000000	61.581041
475.000000	61.491962
474.000000	61.463002
473.000000	61.398538
472.000000	61.322950
471.000000	61.252616
470.000000	61.234455
469.000000	61.196737
468.000000	61.119797
467.000000	61.054109
466.000000	61.025061
465.000000	60.962544
464.000000	60.845792
463.000000	60.799517
462.000000	60.724653
461.000000	60.663557
460.000000	60.595128
459.000000	60.550960
458.000000	60.470358
457.000000	60.387073
456.000000	60.296380
455.000000	60.205422
454.000000	60.182832
453.000000	60.082846
452.000000	59.966703
451.000000	59.861275
450.000000	59.793022
449.000000	59.696576
448.000000	59.632191
447.000000	59.585680
446.000000	59.490031
445.000000	59.367140
444.000000	59.266710
443.000000	59.113516
442.000000	59.053399
441.000000	58.962777
440.000000	58.901547
439.000000	58.820919
438.000000	58.676183
437.000000	58.558414
436.000000	58.450330
435.000000	58.375832
434.000000	58.226520
433.000000	58.185347
432.000000	58.048687
431.000000	57.852657
430.000000	57.738340
429.000000	57.670997
428.000000	57.594542
427.000000	57.398469
426.000000	57.320032
425.000000	57.169604
424.000000	57.047950
423.000000	56.840337
422.000000	56.698029
421.000000	56.552535
420.000000	56.429112
419.000000	56.248051
418.000000	56.160523
417.000000	56.001657
416.000000	55.810646
415.000000	55.590571
414.000000	55.537531
413.000000	55.224265
412.000000	55.085800
411.000000	54.943326
410.000000	54.802485
409.000000	54.545832
408.000000	54.401131
407.000000	54.221095
406.000000	54.009586
405.000000	53.782436
404.000000	53.628599
403.000000	53.454989
402.000000	53.280333
401.000000	52.996764
400.000000	52.801199
399.000000	52.668766
398.000000	52.367263
397.000000	52.208761
396.000000	52.003458
395.000000	51.732608
394.000000	51.529317
393.000000	51.319503
392.000000	51.085909
391.000000	50.755553
390.000000	50.590648
389.000000	50.347585
388.000000	50.003011
387.000000	49.823402
386.000000	49.544848
385.000000	49.290595
384.000000	48.898535
383.000000	48.581566
382.000000	48.279144
381.000000	47.822170
380.000000	47.579119
379.000000	47.135610
378.000000	46.646808
377.000000	46.085557
376.000000	45.533512
375.000000	45.003619
374.000000	44.522708
373.000000	43.724942
372.000000	42.915831
371.000000	42.129520
370.000000	41.094476
369.000000	40.053763
368.000000	38.821607
367.000000	37.405104
366.000000	35.871723
365.000000	34.122059
364.000000	32.211603
363.000000	30.105509
362.000000	27.760134
361.000000	25.365328
360.000000	22.713847
359.000000	19.994473
358.000000	17.314264
357.000000	14.582024
356.000000	11.899709
355.000000	9.417310
354.000000	7.154065
353.000000	5.191520
352.000000	3.585802
351.000000	2.341711
350.000000	1.434609
349.000000	0.819010
348.000000	0.431394
347.000000	0.204017
346.000000	0.094368
345.000000	0.049938
344.000000	0.027688
343.000000	0.020258
342.000000	0.017018
341.000000	0.017211
340.000000	0.013448
339.000000	0.015966
338.000000	0.014740
337.000000	0.016560
336.000000	0.020901
335.000000	0.018510
334.000000	0.023516
333.000000	0.017953
332.000000	0.018535
331.000000	0.020007
330.000000	0.026691
329.000000	0.028755
328.000000	0.026993
327.000000	0.031937
326.000000	0.030602
325.000000	0.029288
