PE UV       SUBTECH     SPECTRUM    ASCII       PEDS        4.00        
   -1
J38.Sample.Raw.asc
18/05/25
12:42:34.00
18/05/25
12:42:34.00
Administrator
longitudinal
325.000000
1
Lambda 850
850L1710193
PerkinElmer UV WinLab 6.4.0.973 / 2.02.06 Lambda 800 UV/VIS, Jan 28 2016 16:58:34

0
0
2
0
0
UV/VIS
1
1
1
RBeamAtt,SBeamAtt,60mm sphere
0
0
0
0
Fix
 
0
0.16
0
0
0
 
 
 
0
 
0
319.2
0
Front
100
 
S:100 R:100
 
0
0
0
 
0
 
 
 
0
 
 
0
0
0
0
0
 
 
 
 
0
0


0
0
#HDR
-1
-1
#GR
nm
%T
1.0
0.0
900.000000
-1.000000
576
8
77.076844
0.011176
#DATA
900.000000	74.154943
899.000000	71.734227
898.000000	73.928867
897.000000	71.697461
896.000000	71.836307
895.000000	74.325081
894.000000	72.991606
893.000000	77.076844
892.000000	71.737973
891.000000	74.174384
890.000000	75.120362
889.000000	73.165218
888.000000	76.762280
887.000000	72.343257
886.000000	72.313039
885.000000	72.723090
884.000000	71.438517
883.000000	71.232392
882.000000	72.500201
881.000000	72.971329
880.000000	74.099215
879.000000	74.217194
878.000000	71.494384
877.000000	73.547595
876.000000	73.737782
875.000000	72.535464
874.000000	73.108527
873.000000	72.549554
872.000000	72.234094
871.000000	72.633956
870.000000	72.427639
869.000000	73.076646
868.000000	73.171430
867.000000	73.188135
866.000000	72.089140
865.000000	73.385703
864.000000	73.020821
863.000000	72.545772
862.000000	72.716407
861.000000	73.577890
860.000000	72.302473
859.000000	72.394788
858.000000	72.306148
857.000000	73.020077
856.000000	73.068238
855.000000	72.219636
854.000000	72.261964
853.000000	72.272959
852.000000	72.601854
851.000000	72.005137
850.000000	72.225955
849.000000	72.297917
848.000000	72.686448
847.000000	72.183592
846.000000	71.785879
845.000000	71.857777
844.000000	71.768228
843.000000	71.637349
842.000000	71.753408
841.000000	71.628182
840.000000	71.720166
839.000000	71.469814
838.000000	71.317064
837.000000	71.206049
836.000000	71.262213
835.000000	70.976187
834.000000	71.110817
833.000000	71.053869
832.000000	71.052176
831.000000	70.992324
830.000000	70.884230
829.000000	70.779973
828.000000	70.616147
827.000000	70.631249
826.000000	70.374521
825.000000	70.369389
824.000000	70.398098
823.000000	70.611056
822.000000	70.498762
821.000000	70.517191
820.000000	70.195719
819.000000	70.341136
818.000000	70.262239
817.000000	70.397461
816.000000	70.440926
815.000000	70.426750
814.000000	70.379564
813.000000	70.129539
812.000000	70.140829
811.000000	69.986368
810.000000	69.932075
809.000000	69.881731
808.000000	69.785445
807.000000	69.895327
806.000000	69.913819
805.000000	69.627824
804.000000	69.592012
803.000000	69.596963
802.000000	69.720278
801.000000	69.735548
800.000000	69.543741
799.000000	69.667036
798.000000	69.729980
797.000000	69.579642
796.000000	69.542745
795.000000	69.543297
794.000000	69.485179
793.000000	69.451288
792.000000	69.335125
791.000000	69.288114
790.000000	69.324235
789.000000	69.293131
788.000000	69.340423
787.000000	69.332536
786.000000	69.299257
785.000000	69.095147
784.000000	69.028343
783.000000	69.166550
782.000000	69.151576
781.000000	68.952285
780.000000	68.917564
779.000000	68.962587
778.000000	68.925660
777.000000	68.777345
776.000000	68.675740
775.000000	68.596235
774.000000	68.597392
773.000000	68.669699
772.000000	68.767359
771.000000	68.614792
770.000000	68.548169
769.000000	68.541504
768.000000	68.452468
767.000000	68.494806
766.000000	68.345251
765.000000	68.252304
764.000000	68.369649
763.000000	68.399698
762.000000	68.243462
761.000000	68.133707
760.000000	68.076542
759.000000	68.132124
758.000000	68.170802
757.000000	68.156165
756.000000	68.070776
755.000000	67.812502
754.000000	67.805792
753.000000	67.892022
752.000000	67.842081
751.000000	67.828756
750.000000	67.823912
749.000000	67.728407
748.000000	67.602377
747.000000	67.619325
746.000000	67.518392
745.000000	67.569040
744.000000	67.459032
743.000000	67.330272
742.000000	67.393144
741.000000	67.443047
740.000000	67.372465
739.000000	67.357030
738.000000	67.336559
737.000000	67.208152
736.000000	67.178340
735.000000	67.234226
734.000000	67.182178
733.000000	67.203072
732.000000	67.199152
731.000000	67.125219
730.000000	67.107666
729.000000	67.002713
728.000000	67.037350
727.000000	66.930932
726.000000	67.036018
725.000000	66.961269
724.000000	66.827738
723.000000	66.873830
722.000000	66.859350
721.000000	66.778526
720.000000	66.745520
719.000000	66.762858
718.000000	66.730244
717.000000	66.659403
716.000000	66.724415
715.000000	66.630738
714.000000	66.550656
713.000000	66.583573
712.000000	66.483732
711.000000	66.452284
710.000000	66.487201
709.000000	66.425015
708.000000	66.388561
707.000000	66.414591
706.000000	66.427862
705.000000	66.374941
704.000000	66.226166
703.000000	66.229949
702.000000	66.363070
701.000000	66.245457
700.000000	66.223216
699.000000	66.238527
698.000000	66.113986
697.000000	66.075248
696.000000	66.057894
695.000000	66.033016
694.000000	66.011225
693.000000	65.981621
692.000000	65.976034
691.000000	65.970071
690.000000	65.790352
689.000000	65.664788
688.000000	65.612361
687.000000	65.634837
686.000000	65.696553
685.000000	65.662492
684.000000	65.583070
683.000000	65.492349
682.000000	65.511575
681.000000	65.365852
680.000000	65.307605
679.000000	65.276490
678.000000	65.219682
677.000000	65.222790
676.000000	65.087725
675.000000	65.095604
674.000000	65.030338
673.000000	65.018956
672.000000	64.940940
671.000000	64.841974
670.000000	64.817712
669.000000	64.798914
668.000000	64.693030
667.000000	64.629590
666.000000	64.516059
665.000000	64.481505
664.000000	64.376445
663.000000	64.316030
662.000000	64.228166
661.000000	64.283692
660.000000	64.196511
659.000000	64.072549
658.000000	63.909522
657.000000	63.870340
656.000000	63.788402
655.000000	63.763712
654.000000	63.709087
653.000000	63.543826
652.000000	63.428252
651.000000	63.361864
650.000000	63.294938
649.000000	63.290394
648.000000	63.092051
647.000000	63.049359
646.000000	62.935415
645.000000	62.798602
644.000000	62.678899
643.000000	62.572712
642.000000	62.429594
641.000000	62.348485
640.000000	62.330744
639.000000	62.156266
638.000000	62.101653
637.000000	61.888550
636.000000	61.800864
635.000000	61.811943
634.000000	61.653163
633.000000	61.534203
632.000000	61.544506
631.000000	61.354243
630.000000	61.208595
629.000000	61.084073
628.000000	60.993203
627.000000	60.898244
626.000000	60.769836
625.000000	60.648949
624.000000	60.535030
623.000000	60.364640
622.000000	60.357682
621.000000	60.166645
620.000000	60.108953
619.000000	59.929772
618.000000	59.815023
617.000000	59.701014
616.000000	59.593044
615.000000	59.490051
614.000000	59.287220
613.000000	59.204880
612.000000	59.068188
611.000000	58.973544
610.000000	58.844794
609.000000	58.732878
608.000000	58.600666
607.000000	58.451617
606.000000	58.317292
605.000000	58.201614
604.000000	58.081583
603.000000	57.889341
602.000000	57.871356
601.000000	57.727152
600.000000	57.602524
599.000000	57.501299
598.000000	57.326651
597.000000	57.233113
596.000000	57.137450
595.000000	56.940074
594.000000	56.832553
593.000000	56.671519
592.000000	56.595864
591.000000	56.473031
590.000000	56.345569
589.000000	56.251720
588.000000	56.091366
587.000000	55.985967
586.000000	55.898917
585.000000	55.775196
584.000000	55.665234
583.000000	55.540622
582.000000	55.403468
581.000000	55.239601
580.000000	55.105075
579.000000	55.043295
578.000000	54.908603
577.000000	54.824098
576.000000	54.706886
575.000000	54.556128
574.000000	54.444398
573.000000	54.333758
572.000000	54.193496
571.000000	54.094730
570.000000	54.016430
569.000000	53.895865
568.000000	53.810557
567.000000	53.706833
566.000000	53.583238
565.000000	53.512661
564.000000	53.370335
563.000000	53.239698
562.000000	53.153637
561.000000	53.058678
560.000000	52.944577
559.000000	52.837321
558.000000	52.714377
557.000000	52.580237
556.000000	52.492836
555.000000	52.441643
554.000000	52.318421
553.000000	52.176141
552.000000	52.127533
551.000000	52.045775
550.000000	51.944049
549.000000	51.853377
548.000000	51.755866
547.000000	51.659737
546.000000	51.555591
545.000000	51.484032
544.000000	51.386447
543.000000	51.312088
542.000000	51.237986
541.000000	51.146463
540.000000	51.053979
539.000000	50.957245
538.000000	50.902067
537.000000	50.785588
536.000000	50.709336
535.000000	50.645708
534.000000	50.597908
533.000000	50.504297
532.000000	50.418141
531.000000	50.353964
530.000000	50.262036
529.000000	50.197651
528.000000	50.127948
527.000000	50.063348
526.000000	49.990903
525.000000	49.901127
524.000000	49.830459
523.000000	49.759477
522.000000	49.705556
521.000000	49.639958
520.000000	49.563451
519.000000	49.514729
518.000000	49.442591
517.000000	49.374637
516.000000	49.329774
515.000000	49.271306
514.000000	49.219847
513.000000	49.164187
512.000000	49.098556
511.000000	49.045730
510.000000	48.992120
509.000000	48.917697
508.000000	48.848287
507.000000	48.810538
506.000000	48.759114
505.000000	48.725673
504.000000	48.683432
503.000000	48.617364
502.000000	48.568597
501.000000	48.512450
500.000000	48.436811
499.000000	48.396101
498.000000	48.343450
497.000000	48.256844
496.000000	48.197895
495.000000	48.130481
494.000000	48.111485
493.000000	48.053950
492.000000	47.958544
491.000000	47.927723
490.000000	47.893797
489.000000	47.847389
488.000000	47.785680
487.000000	47.729981
486.000000	47.663145
485.000000	47.628658
484.000000	47.563715
483.000000	47.515879
482.000000	47.496061
481.000000	47.463212
480.000000	47.424680
479.000000	47.419147
478.000000	47.377031
477.000000	47.347307
476.000000	47.323878
475.000000	47.273168
474.000000	47.216756
473.000000	47.182785
472.000000	47.142608
471.000000	47.080345
470.000000	47.043781
469.000000	47.000131
468.000000	46.944177
467.000000	46.903598
466.000000	46.870906
465.000000	46.841299
464.000000	46.759248
463.000000	46.718589
462.000000	46.702355
461.000000	46.636615
460.000000	46.577968
459.000000	46.548450
458.000000	46.501420
457.000000	46.417915
456.000000	46.363077
455.000000	46.277608
454.000000	46.240005
453.000000	46.197645
452.000000	46.126874
451.000000	46.042956
450.000000	45.953583
449.000000	45.905768
448.000000	45.836125
447.000000	45.749561
446.000000	45.695244
445.000000	45.613302
444.000000	45.576033
443.000000	45.450400
442.000000	45.391212
441.000000	45.319236
440.000000	45.264249
439.000000	45.199656
438.000000	45.117322
437.000000	45.051616
436.000000	44.950855
435.000000	44.892762
434.000000	44.784809
433.000000	44.728444
432.000000	44.607775
431.000000	44.531369
430.000000	44.436119
429.000000	44.377004
428.000000	44.321997
427.000000	44.190753
426.000000	44.080018
425.000000	43.971451
424.000000	43.882847
423.000000	43.766175
422.000000	43.658224
421.000000	43.609722
420.000000	43.498776
419.000000	43.372413
418.000000	43.249766
417.000000	43.167951
416.000000	43.055336
415.000000	42.964946
414.000000	42.829987
413.000000	42.672831
412.000000	42.531002
411.000000	42.424924
410.000000	42.315258
409.000000	42.164226
408.000000	42.060532
407.000000	41.993508
406.000000	41.781834
405.000000	41.746352
404.000000	41.526565
403.000000	41.418634
402.000000	41.248851
401.000000	41.171485
400.000000	40.975205
399.000000	40.866330
398.000000	40.715625
397.000000	40.548819
396.000000	40.390250
395.000000	40.266158
394.000000	40.156785
393.000000	39.938682
392.000000	39.828615
391.000000	39.599725
390.000000	39.476416
389.000000	39.303570
388.000000	39.095243
387.000000	38.865877
386.000000	38.764402
385.000000	38.597086
384.000000	38.394683
383.000000	38.239429
382.000000	38.010858
381.000000	37.818427
380.000000	37.564515
379.000000	37.334304
378.000000	37.186175
377.000000	36.849141
376.000000	36.497006
375.000000	36.254936
374.000000	36.085247
373.000000	35.693385
372.000000	35.272752
371.000000	34.887220
370.000000	34.432587
369.000000	33.860658
368.000000	33.238808
367.000000	32.551105
366.000000	31.786381
365.000000	30.882103
364.000000	30.034408
363.000000	28.917233
362.000000	27.659449
361.000000	26.320775
360.000000	24.775147
359.000000	23.142032
358.000000	21.389606
357.000000	19.439261
356.000000	17.493882
355.000000	15.372619
354.000000	13.213237
353.000000	11.096698
352.000000	9.041446
351.000000	7.173204
350.000000	5.451265
349.000000	3.942329
348.000000	2.735009
347.000000	1.787553
346.000000	1.063847
345.000000	0.603380
344.000000	0.313705
343.000000	0.155341
342.000000	0.064897
341.000000	0.039807
340.000000	0.020557
339.000000	0.014042
338.000000	0.011176
337.000000	0.013286
336.000000	0.021960
335.000000	0.026608
334.000000	0.018793
333.000000	0.020269
332.000000	0.024231
331.000000	0.019813
330.000000	0.016344
329.000000	0.025463
328.000000	0.032411
327.000000	0.037259
326.000000	0.033507
325.000000	0.033264
