PE UV       SUBTECH     SPECTRUM    ASCII       PEDS        4.00        
   -1
J37.Sample.Raw.asc
18/05/02
11:15:09.00
18/05/02
11:15:09.00
Administrator
longitudinal
325.000000
1
Lambda 850
850L1710193
PerkinElmer UV WinLab 6.4.0.973 / 2.02.06 Lambda 800 UV/VIS, Jan 28 2016 16:58:34

0
0
2
0
0
UV/VIS
1
1
1
RBeamAtt,SBeamAtt,60mm sphere
0
0
0
0
Fix
 
0
0.16
0
0
0
 
 
 
0
 
0
319.2
0
Front
100
 
S:100 R:100
 
0
0
0
 
0
 
 
 
0
 
 
0
0
0
0
0
 
 
 
 
0
0


0
0
#HDR
-1
-1
#GR
nm
%T
1.0
0.0
900.000000
-1.000000
576
8
80.000506
0.024200
#DATA
900.000000	75.728598
899.000000	78.443465
898.000000	74.662036
897.000000	80.000506
896.000000	74.023780
895.000000	73.824394
894.000000	72.237549
893.000000	77.084389
892.000000	75.176555
891.000000	74.397403
890.000000	75.312314
889.000000	73.167308
888.000000	77.592166
887.000000	75.622511
886.000000	73.985986
885.000000	71.843279
884.000000	75.658445
883.000000	75.244238
882.000000	75.851083
881.000000	73.955613
880.000000	72.664792
879.000000	74.919638
878.000000	74.928000
877.000000	71.915522
876.000000	76.189517
875.000000	74.866224
874.000000	74.080888
873.000000	72.978221
872.000000	73.490861
871.000000	75.110022
870.000000	75.055602
869.000000	73.645796
868.000000	73.715333
867.000000	75.299114
866.000000	74.868442
865.000000	74.479423
864.000000	75.144768
863.000000	74.896931
862.000000	73.453273
861.000000	73.692964
860.000000	73.952334
859.000000	74.497225
858.000000	74.089490
857.000000	73.814271
856.000000	73.658311
855.000000	73.384973
854.000000	73.709926
853.000000	73.398711
852.000000	73.853007
851.000000	74.256829
850.000000	74.083408
849.000000	73.747881
848.000000	73.456649
847.000000	73.393231
846.000000	73.504824
845.000000	73.541206
844.000000	73.546076
843.000000	73.234627
842.000000	73.473179
841.000000	73.593834
840.000000	73.555194
839.000000	73.173938
838.000000	73.173937
837.000000	73.179567
836.000000	73.144945
835.000000	73.265538
834.000000	72.913703
833.000000	73.118435
832.000000	72.926412
831.000000	72.971599
830.000000	73.027481
829.000000	72.937745
828.000000	72.935432
827.000000	72.918720
826.000000	72.715958
825.000000	72.703467
824.000000	72.496942
823.000000	72.607484
822.000000	72.803118
821.000000	72.805450
820.000000	72.771982
819.000000	72.544683
818.000000	72.696085
817.000000	72.600670
816.000000	72.522932
815.000000	72.473449
814.000000	72.765291
813.000000	72.773068
812.000000	72.524245
811.000000	72.590137
810.000000	72.592696
809.000000	72.530387
808.000000	72.576276
807.000000	72.582996
806.000000	72.568444
805.000000	72.545481
804.000000	72.628339
803.000000	72.701173
802.000000	72.536285
801.000000	72.417288
800.000000	72.412074
799.000000	72.359639
798.000000	72.536150
797.000000	72.449141
796.000000	72.355118
795.000000	72.419839
794.000000	72.423657
793.000000	72.506982
792.000000	72.426759
791.000000	72.389107
790.000000	72.380796
789.000000	72.423095
788.000000	72.544856
787.000000	72.503574
786.000000	72.416972
785.000000	72.361475
784.000000	72.319125
783.000000	72.306573
782.000000	72.320395
781.000000	72.378294
780.000000	72.316225
779.000000	72.297010
778.000000	72.458468
777.000000	72.363613
776.000000	72.178868
775.000000	72.299451
774.000000	72.363575
773.000000	72.352954
772.000000	72.291284
771.000000	72.318165
770.000000	72.322845
769.000000	72.184970
768.000000	72.191820
767.000000	72.308717
766.000000	72.268360
765.000000	72.346490
764.000000	72.299692
763.000000	72.117409
762.000000	72.083437
761.000000	72.154357
760.000000	72.186859
759.000000	72.236488
758.000000	72.224496
757.000000	72.221735
756.000000	72.216944
755.000000	72.027293
754.000000	72.040252
753.000000	72.105950
752.000000	72.119435
751.000000	72.123004
750.000000	72.172932
749.000000	72.157483
748.000000	72.130691
747.000000	72.119915
746.000000	72.085261
745.000000	72.074494
744.000000	72.114329
743.000000	72.110973
742.000000	71.978154
741.000000	71.948279
740.000000	71.974030
739.000000	71.903203
738.000000	71.932091
737.000000	72.031465
736.000000	72.033850
735.000000	71.933873
734.000000	71.852375
733.000000	71.765152
732.000000	71.825006
731.000000	71.956491
730.000000	71.938905
729.000000	71.883889
728.000000	71.809189
727.000000	71.820009
726.000000	71.801157
725.000000	71.849107
724.000000	71.804378
723.000000	71.710547
722.000000	71.812335
721.000000	71.739902
720.000000	71.749221
719.000000	71.826649
718.000000	71.774077
717.000000	71.753963
716.000000	71.789120
715.000000	71.683458
714.000000	71.651473
713.000000	71.665001
712.000000	71.712054
711.000000	71.561009
710.000000	71.551325
709.000000	71.682663
708.000000	71.615489
707.000000	71.701345
706.000000	71.636863
705.000000	71.606896
704.000000	71.629717
703.000000	71.489780
702.000000	71.594421
701.000000	71.574564
700.000000	71.600554
699.000000	71.611641
698.000000	71.492725
697.000000	71.446316
696.000000	71.497364
695.000000	71.477666
694.000000	71.450857
693.000000	71.312764
692.000000	71.459236
691.000000	71.403209
690.000000	71.223601
689.000000	71.171409
688.000000	71.263251
687.000000	71.295698
686.000000	71.165452
685.000000	71.220543
684.000000	71.175777
683.000000	71.077455
682.000000	71.172574
681.000000	71.181357
680.000000	71.141551
679.000000	71.122022
678.000000	71.194979
677.000000	71.140762
676.000000	70.997941
675.000000	71.216357
674.000000	71.057473
673.000000	71.030555
672.000000	71.006865
671.000000	71.036258
670.000000	70.923499
669.000000	70.981986
668.000000	70.943888
667.000000	70.929536
666.000000	70.989681
665.000000	70.909789
664.000000	70.985371
663.000000	70.882987
662.000000	70.849812
661.000000	70.876266
660.000000	70.827441
659.000000	70.828447
658.000000	70.761943
657.000000	70.831340
656.000000	70.815955
655.000000	70.790079
654.000000	70.769140
653.000000	70.656008
652.000000	70.682772
651.000000	70.666757
650.000000	70.760872
649.000000	70.744914
648.000000	70.684366
647.000000	70.590417
646.000000	70.649805
645.000000	70.643264
644.000000	70.662608
643.000000	70.632569
642.000000	70.496991
641.000000	70.566322
640.000000	70.595552
639.000000	70.545239
638.000000	70.557346
637.000000	70.524175
636.000000	70.516064
635.000000	70.417358
634.000000	70.518058
633.000000	70.447116
632.000000	70.422431
631.000000	70.425987
630.000000	70.417285
629.000000	70.454086
628.000000	70.300922
627.000000	70.362823
626.000000	70.288266
625.000000	70.360230
624.000000	70.340076
623.000000	70.285608
622.000000	70.237441
621.000000	70.218241
620.000000	70.219885
619.000000	70.178899
618.000000	70.157373
617.000000	70.207834
616.000000	70.107226
615.000000	70.113636
614.000000	70.057368
613.000000	70.067397
612.000000	70.041329
611.000000	70.042773
610.000000	70.004117
609.000000	70.104324
608.000000	70.089620
607.000000	70.017634
606.000000	69.923516
605.000000	70.005480
604.000000	69.936895
603.000000	69.954465
602.000000	69.946015
601.000000	69.891946
600.000000	69.854521
599.000000	69.816432
598.000000	69.809129
597.000000	69.773740
596.000000	69.797381
595.000000	69.799624
594.000000	69.781579
593.000000	69.814581
592.000000	69.732174
591.000000	69.700864
590.000000	69.689854
589.000000	69.669619
588.000000	69.618940
587.000000	69.569632
586.000000	69.538762
585.000000	69.560703
584.000000	69.538080
583.000000	69.525526
582.000000	69.521147
581.000000	69.484408
580.000000	69.490471
579.000000	69.385457
578.000000	69.399194
577.000000	69.400571
576.000000	69.375865
575.000000	69.331591
574.000000	69.330218
573.000000	69.338627
572.000000	69.300555
571.000000	69.239729
570.000000	69.206618
569.000000	69.195028
568.000000	69.217183
567.000000	69.231755
566.000000	69.201820
565.000000	69.215322
564.000000	69.156936
563.000000	69.082706
562.000000	69.069000
561.000000	69.034609
560.000000	69.061643
559.000000	69.006062
558.000000	68.959724
557.000000	68.990321
556.000000	68.934979
555.000000	68.912586
554.000000	68.899280
553.000000	68.859343
552.000000	68.905212
551.000000	68.837112
550.000000	68.781735
549.000000	68.751816
548.000000	68.735549
547.000000	68.682433
546.000000	68.653764
545.000000	68.687838
544.000000	68.668077
543.000000	68.597116
542.000000	68.576955
541.000000	68.579089
540.000000	68.553074
539.000000	68.513803
538.000000	68.461847
537.000000	68.426630
536.000000	68.427380
535.000000	68.428045
534.000000	68.366774
533.000000	68.309530
532.000000	68.288196
531.000000	68.308142
530.000000	68.306432
529.000000	68.290504
528.000000	68.250601
527.000000	68.183320
526.000000	68.168023
525.000000	68.153862
524.000000	68.113659
523.000000	68.077878
522.000000	68.040742
521.000000	67.999083
520.000000	67.967479
519.000000	67.951183
518.000000	67.909589
517.000000	67.887835
516.000000	67.872264
515.000000	67.821214
514.000000	67.787276
513.000000	67.761740
512.000000	67.719937
511.000000	67.680345
510.000000	67.648268
509.000000	67.603134
508.000000	67.567084
507.000000	67.540711
506.000000	67.517152
505.000000	67.488277
504.000000	67.425319
503.000000	67.360396
502.000000	67.315682
501.000000	67.277791
500.000000	67.241891
499.000000	67.203269
498.000000	67.151257
497.000000	67.137032
496.000000	67.084769
495.000000	66.999482
494.000000	66.978712
493.000000	66.954884
492.000000	66.925456
491.000000	66.886389
490.000000	66.833109
489.000000	66.756483
488.000000	66.703552
487.000000	66.688557
486.000000	66.623228
485.000000	66.545874
484.000000	66.508846
483.000000	66.475279
482.000000	66.435063
481.000000	66.424399
480.000000	66.367920
479.000000	66.334857
478.000000	66.336012
477.000000	66.222117
476.000000	66.148624
475.000000	66.084352
474.000000	66.066747
473.000000	66.066860
472.000000	66.025201
471.000000	65.967763
470.000000	65.882355
469.000000	65.839911
468.000000	65.798787
467.000000	65.759366
466.000000	65.683464
465.000000	65.599905
464.000000	65.577502
463.000000	65.514666
462.000000	65.473132
461.000000	65.388790
460.000000	65.327935
459.000000	65.260476
458.000000	65.174375
457.000000	65.154263
456.000000	65.036498
455.000000	65.021622
454.000000	65.000040
453.000000	64.912211
452.000000	64.800322
451.000000	64.718921
450.000000	64.667360
449.000000	64.594813
448.000000	64.503636
447.000000	64.400508
446.000000	64.330479
445.000000	64.278208
444.000000	64.199908
443.000000	64.081591
442.000000	63.977621
441.000000	63.918084
440.000000	63.840556
439.000000	63.769988
438.000000	63.703630
437.000000	63.616247
436.000000	63.571313
435.000000	63.404410
434.000000	63.405486
433.000000	63.190582
432.000000	63.137244
431.000000	63.073544
430.000000	63.001670
429.000000	62.882909
428.000000	62.780946
427.000000	62.645399
426.000000	62.553588
425.000000	62.514690
424.000000	62.411288
423.000000	62.234597
422.000000	62.088245
421.000000	62.020359
420.000000	61.895125
419.000000	61.757438
418.000000	61.570727
417.000000	61.536523
416.000000	61.360962
415.000000	61.209102
414.000000	61.041204
413.000000	60.939557
412.000000	60.796382
411.000000	60.613709
410.000000	60.493369
409.000000	60.238200
408.000000	60.127937
407.000000	59.983687
406.000000	59.897310
405.000000	59.600142
404.000000	59.460165
403.000000	59.305321
402.000000	59.050367
401.000000	58.882837
400.000000	58.642328
399.000000	58.433321
398.000000	58.197621
397.000000	58.031073
396.000000	57.839381
395.000000	57.483005
394.000000	57.287911
393.000000	57.055638
392.000000	56.768844
391.000000	56.513674
390.000000	56.222399
389.000000	55.967526
388.000000	55.582512
387.000000	55.286881
386.000000	54.946893
385.000000	54.692668
384.000000	54.290532
383.000000	53.921994
382.000000	53.566899
381.000000	53.129094
380.000000	52.815452
379.000000	52.157829
378.000000	51.767250
377.000000	51.111184
376.000000	50.410958
375.000000	49.927597
374.000000	49.235493
373.000000	48.441527
372.000000	47.429787
371.000000	46.506754
370.000000	45.383283
369.000000	44.270078
368.000000	42.821504
367.000000	41.272753
366.000000	39.506533
365.000000	37.603489
364.000000	35.557772
363.000000	33.189152
362.000000	30.721397
361.000000	28.023911
360.000000	25.187488
359.000000	22.264576
358.000000	19.257177
357.000000	16.291383
356.000000	13.311378
355.000000	10.568632
354.000000	8.068194
353.000000	5.909503
352.000000	4.118429
351.000000	2.703186
350.000000	1.667513
349.000000	0.969071
348.000000	0.519749
347.000000	0.253188
346.000000	0.125820
345.000000	0.062327
344.000000	0.041572
343.000000	0.032469
342.000000	0.029770
341.000000	0.031376
340.000000	0.024200
339.000000	0.025380
338.000000	0.032871
337.000000	0.039618
336.000000	0.026464
335.000000	0.027742
334.000000	0.029431
333.000000	0.037073
332.000000	0.036682
331.000000	0.024592
330.000000	0.037513
329.000000	0.039451
328.000000	0.039238
327.000000	0.028783
326.000000	0.035231
325.000000	0.049561
