PE UV       SUBTECH     SPECTRUM    ASCII       PEDS        4.00        
   -1
J44.Sample.Raw.asc
18/05/02
11:20:15.00
18/05/02
11:20:15.00
Administrator
longitudinal
325.000000
1
Lambda 850
850L1710193
PerkinElmer UV WinLab 6.4.0.973 / 2.02.06 Lambda 800 UV/VIS, Jan 28 2016 16:58:34

0
0
2
0
0
UV/VIS
1
1
1
RBeamAtt,SBeamAtt,60mm sphere
0
0
0
0
Fix
 
0
0.16
0
0
0
 
 
 
0
 
0
319.2
0
Front
100
 
S:100 R:100
 
0
0
0
 
0
 
 
 
0
 
 
0
0
0
0
0
 
 
 
 
0
0


0
0
#HDR
-1
-1
#GR
nm
%T
1.0
0.0
900.000000
-1.000000
576
8
82.196867
0.019645
#DATA
900.000000	79.536137
899.000000	82.196867
898.000000	74.913017
897.000000	76.339389
896.000000	67.570919
895.000000	74.030570
894.000000	74.167971
893.000000	75.224931
892.000000	75.389300
891.000000	75.804602
890.000000	70.185921
889.000000	74.525469
888.000000	78.537457
887.000000	75.637824
886.000000	77.814197
885.000000	73.369909
884.000000	79.271003
883.000000	76.340620
882.000000	75.898115
881.000000	75.567289
880.000000	71.650159
879.000000	73.143775
878.000000	76.649988
877.000000	73.234055
876.000000	75.597529
875.000000	74.434421
874.000000	74.574307
873.000000	74.132669
872.000000	74.201396
871.000000	76.895930
870.000000	75.880502
869.000000	75.319325
868.000000	74.830556
867.000000	75.367394
866.000000	75.246914
865.000000	75.591615
864.000000	75.484237
863.000000	75.848460
862.000000	75.195202
861.000000	74.894970
860.000000	74.740729
859.000000	75.174662
858.000000	75.187399
857.000000	74.388519
856.000000	74.818281
855.000000	75.092158
854.000000	74.856640
853.000000	74.465883
852.000000	74.545587
851.000000	74.980108
850.000000	74.761778
849.000000	74.382612
848.000000	74.169804
847.000000	74.358028
846.000000	74.623982
845.000000	74.770039
844.000000	74.505223
843.000000	74.246788
842.000000	74.148126
841.000000	74.371734
840.000000	74.511955
839.000000	73.968696
838.000000	74.030846
837.000000	73.990995
836.000000	74.149276
835.000000	74.380763
834.000000	73.927801
833.000000	74.064557
832.000000	73.944750
831.000000	73.765709
830.000000	74.116885
829.000000	73.912362
828.000000	73.983079
827.000000	73.836195
826.000000	73.691343
825.000000	73.751243
824.000000	73.764054
823.000000	73.657428
822.000000	73.704414
821.000000	73.685683
820.000000	73.451172
819.000000	73.619058
818.000000	73.676497
817.000000	73.395823
816.000000	73.356515
815.000000	73.442351
814.000000	73.662403
813.000000	73.529116
812.000000	73.486173
811.000000	73.519488
810.000000	73.631207
809.000000	73.643554
808.000000	73.430068
807.000000	73.407567
806.000000	73.492296
805.000000	73.460817
804.000000	73.517880
803.000000	73.550946
802.000000	73.450544
801.000000	73.432434
800.000000	73.374037
799.000000	73.222188
798.000000	73.517707
797.000000	73.512219
796.000000	73.317617
795.000000	73.455501
794.000000	73.494188
793.000000	73.467058
792.000000	73.331414
791.000000	73.504987
790.000000	73.454221
789.000000	73.424564
788.000000	73.453151
787.000000	73.371119
786.000000	73.352693
785.000000	73.246751
784.000000	73.137990
783.000000	73.130677
782.000000	73.147326
781.000000	73.186867
780.000000	73.154151
779.000000	73.132484
778.000000	73.172695
777.000000	73.236414
776.000000	73.278494
775.000000	73.231918
774.000000	73.303310
773.000000	73.323628
772.000000	73.210022
771.000000	73.120839
770.000000	73.186232
769.000000	73.284635
768.000000	73.137750
767.000000	72.994793
766.000000	72.972487
765.000000	73.117989
764.000000	73.135246
763.000000	73.067515
762.000000	73.125762
761.000000	73.129768
760.000000	73.085099
759.000000	73.141805
758.000000	73.069110
757.000000	73.028032
756.000000	73.044438
755.000000	72.860279
754.000000	72.904933
753.000000	72.952482
752.000000	72.961032
751.000000	72.992322
750.000000	73.053491
749.000000	73.115839
748.000000	73.099474
747.000000	72.980967
746.000000	72.905830
745.000000	72.856801
744.000000	72.912154
743.000000	72.974389
742.000000	72.964818
741.000000	72.821379
740.000000	72.798336
739.000000	72.826402
738.000000	72.767090
737.000000	72.776946
736.000000	72.802584
735.000000	72.801907
734.000000	72.794875
733.000000	72.716457
732.000000	72.736472
731.000000	72.836057
730.000000	72.729715
729.000000	72.719073
728.000000	72.706119
727.000000	72.675491
726.000000	72.624672
725.000000	72.701429
724.000000	72.675035
723.000000	72.632888
722.000000	72.734657
721.000000	72.680923
720.000000	72.663848
719.000000	72.694593
718.000000	72.730989
717.000000	72.702944
716.000000	72.708801
715.000000	72.619523
714.000000	72.516519
713.000000	72.523570
712.000000	72.603077
711.000000	72.440344
710.000000	72.452913
709.000000	72.486895
708.000000	72.430273
707.000000	72.498890
706.000000	72.516741
705.000000	72.515224
704.000000	72.522117
703.000000	72.374105
702.000000	72.405641
701.000000	72.434337
700.000000	72.483897
699.000000	72.440644
698.000000	72.390440
697.000000	72.288158
696.000000	72.262282
695.000000	72.360877
694.000000	72.364633
693.000000	72.310908
692.000000	72.277907
691.000000	72.363967
690.000000	72.170330
689.000000	72.074725
688.000000	72.133458
687.000000	72.044299
686.000000	72.015051
685.000000	72.137861
684.000000	72.111227
683.000000	72.004687
682.000000	72.043604
681.000000	72.045956
680.000000	72.096347
679.000000	72.009267
678.000000	72.031106
677.000000	72.021162
676.000000	71.981290
675.000000	72.064580
674.000000	71.929832
673.000000	71.931969
672.000000	71.867689
671.000000	71.927048
670.000000	71.905062
669.000000	71.834108
668.000000	71.796172
667.000000	71.879188
666.000000	71.828536
665.000000	71.749456
664.000000	71.863034
663.000000	71.793949
662.000000	71.750772
661.000000	71.675532
660.000000	71.641474
659.000000	71.748286
658.000000	71.640920
657.000000	71.704521
656.000000	71.712438
655.000000	71.709195
654.000000	71.601980
653.000000	71.639001
652.000000	71.588515
651.000000	71.484431
650.000000	71.642061
649.000000	71.657463
648.000000	71.575026
647.000000	71.551422
646.000000	71.484307
645.000000	71.517807
644.000000	71.476483
643.000000	71.429033
642.000000	71.416865
641.000000	71.445225
640.000000	71.497888
639.000000	71.435688
638.000000	71.451221
637.000000	71.358772
636.000000	71.339450
635.000000	71.313619
634.000000	71.397947
633.000000	71.344478
632.000000	71.287882
631.000000	71.287602
630.000000	71.277365
629.000000	71.273809
628.000000	71.220248
627.000000	71.229639
626.000000	71.174140
625.000000	71.203586
624.000000	71.246153
623.000000	71.240904
622.000000	71.148258
621.000000	71.117586
620.000000	71.139625
619.000000	71.096204
618.000000	71.047343
617.000000	71.049035
616.000000	71.063477
615.000000	71.026386
614.000000	71.017526
613.000000	70.968270
612.000000	70.982688
611.000000	70.904892
610.000000	70.896555
609.000000	71.004379
608.000000	70.956280
607.000000	70.914595
606.000000	70.867597
605.000000	70.903798
604.000000	70.756527
603.000000	70.770083
602.000000	70.782699
601.000000	70.756148
600.000000	70.742298
599.000000	70.686328
598.000000	70.681811
597.000000	70.713113
596.000000	70.655374
595.000000	70.705768
594.000000	70.666910
593.000000	70.614747
592.000000	70.635631
591.000000	70.576992
590.000000	70.543192
589.000000	70.544655
588.000000	70.519528
587.000000	70.520091
586.000000	70.462641
585.000000	70.505668
584.000000	70.475185
583.000000	70.456579
582.000000	70.407915
581.000000	70.325416
580.000000	70.330927
579.000000	70.336636
578.000000	70.314589
577.000000	70.250297
576.000000	70.273326
575.000000	70.256627
574.000000	70.224045
573.000000	70.227653
572.000000	70.214267
571.000000	70.152914
570.000000	70.113521
569.000000	70.092812
568.000000	70.148425
567.000000	70.150447
566.000000	70.083624
565.000000	70.081430
564.000000	70.065224
563.000000	70.012521
562.000000	70.003463
561.000000	69.930576
560.000000	69.918125
559.000000	69.886685
558.000000	69.880846
557.000000	69.858649
556.000000	69.812366
555.000000	69.811141
554.000000	69.823821
553.000000	69.803363
552.000000	69.818732
551.000000	69.737298
550.000000	69.701572
549.000000	69.699685
548.000000	69.689812
547.000000	69.620653
546.000000	69.568430
545.000000	69.573152
544.000000	69.552305
543.000000	69.492957
542.000000	69.482141
541.000000	69.430793
540.000000	69.408614
539.000000	69.397947
538.000000	69.337894
537.000000	69.353113
536.000000	69.332984
535.000000	69.299155
534.000000	69.260566
533.000000	69.219174
532.000000	69.170255
531.000000	69.142492
530.000000	69.108501
529.000000	69.087797
528.000000	69.057217
527.000000	69.024559
526.000000	69.000672
525.000000	68.977954
524.000000	68.941802
523.000000	68.877571
522.000000	68.848267
521.000000	68.824881
520.000000	68.773371
519.000000	68.747495
518.000000	68.715229
517.000000	68.687131
516.000000	68.660686
515.000000	68.607219
514.000000	68.560400
513.000000	68.524761
512.000000	68.480968
511.000000	68.428041
510.000000	68.408863
509.000000	68.358875
508.000000	68.308147
507.000000	68.262217
506.000000	68.210054
505.000000	68.173715
504.000000	68.115145
503.000000	68.051107
502.000000	67.978613
501.000000	67.929559
500.000000	67.880272
499.000000	67.856069
498.000000	67.780311
497.000000	67.715771
496.000000	67.685783
495.000000	67.590325
494.000000	67.520507
493.000000	67.477046
492.000000	67.460718
491.000000	67.392287
490.000000	67.295150
489.000000	67.254662
488.000000	67.175274
487.000000	67.100352
486.000000	67.043487
485.000000	66.963447
484.000000	66.971561
483.000000	66.966691
482.000000	66.862491
481.000000	66.804126
480.000000	66.720348
479.000000	66.675293
478.000000	66.675944
477.000000	66.592303
476.000000	66.490940
475.000000	66.423756
474.000000	66.405155
473.000000	66.375765
472.000000	66.306065
471.000000	66.223712
470.000000	66.177130
469.000000	66.105582
468.000000	66.058993
467.000000	66.007964
466.000000	65.907091
465.000000	65.812564
464.000000	65.744382
463.000000	65.664139
462.000000	65.642579
461.000000	65.589138
460.000000	65.476617
459.000000	65.423238
458.000000	65.322145
457.000000	65.267948
456.000000	65.169800
455.000000	65.099130
454.000000	65.049036
453.000000	64.947668
452.000000	64.829104
451.000000	64.759342
450.000000	64.741467
449.000000	64.683334
448.000000	64.490845
447.000000	64.388876
446.000000	64.319730
445.000000	64.204624
444.000000	64.204870
443.000000	64.060618
442.000000	64.044389
441.000000	63.923839
440.000000	63.876979
439.000000	63.804826
438.000000	63.715330
437.000000	63.618553
436.000000	63.504932
435.000000	63.315394
434.000000	63.331268
433.000000	63.237072
432.000000	63.142747
431.000000	63.001249
430.000000	62.941516
429.000000	62.858382
428.000000	62.746018
427.000000	62.704986
426.000000	62.588890
425.000000	62.583153
424.000000	62.433012
423.000000	62.297016
422.000000	62.181847
421.000000	62.068145
420.000000	61.928751
419.000000	61.805896
418.000000	61.684077
417.000000	61.555381
416.000000	61.514085
415.000000	61.393886
414.000000	61.220824
413.000000	61.136010
412.000000	61.001508
411.000000	60.809775
410.000000	60.706173
409.000000	60.511530
408.000000	60.382234
407.000000	60.267205
406.000000	60.090834
405.000000	59.950786
404.000000	59.720776
403.000000	59.580844
402.000000	59.361819
401.000000	59.167436
400.000000	58.903974
399.000000	58.771309
398.000000	58.519258
397.000000	58.361684
396.000000	58.146359
395.000000	57.786266
394.000000	57.614624
393.000000	57.395981
392.000000	57.178994
391.000000	56.858371
390.000000	56.604884
389.000000	56.258844
388.000000	55.904729
387.000000	55.654532
386.000000	55.319705
385.000000	55.031379
384.000000	54.720026
383.000000	54.288867
382.000000	53.932248
381.000000	53.570729
380.000000	53.178196
379.000000	52.642020
378.000000	52.132339
377.000000	51.551253
376.000000	50.921944
375.000000	50.474509
374.000000	49.913952
373.000000	49.146248
372.000000	48.247132
371.000000	47.511231
370.000000	46.329869
369.000000	45.511302
368.000000	44.233763
367.000000	42.813116
366.000000	41.322513
365.000000	39.511468
364.000000	37.715960
363.000000	35.622734
362.000000	33.324135
361.000000	30.873929
360.000000	28.323093
359.000000	25.501769
358.000000	22.607433
357.000000	19.665515
356.000000	16.691144
355.000000	13.779537
354.000000	11.051907
353.000000	8.521708
352.000000	6.323443
351.000000	4.464201
350.000000	3.008815
349.000000	1.894164
348.000000	1.107237
347.000000	0.613031
346.000000	0.314115
345.000000	0.151600
344.000000	0.084986
343.000000	0.044875
342.000000	0.030255
341.000000	0.026131
340.000000	0.020798
339.000000	0.029269
338.000000	0.019645
337.000000	0.025601
336.000000	0.039598
335.000000	0.032024
334.000000	0.029431
333.000000	0.025658
332.000000	0.031024
331.000000	0.034448
330.000000	0.034192
329.000000	0.037494
328.000000	0.048632
327.000000	0.044643
326.000000	0.038851
325.000000	0.039374
