PE UV       SUBTECH     SPECTRUM    ASCII       PEDS        4.00        
   -1
100% or 0 Absorbance Baseline.Correction.Raw.asc
18/05/25
08:35:24.00
18/05/25
08:35:24.00
Administrator

325.000000
1
Lambda 850
850L1710193
PerkinElmer UV WinLab 6.4.0.973 / 2.02.06 Lambda 800 UV/VIS, Jan 28 2016 16:58:34

0
0
2
0
0
UV/VIS
0
1
1
RBeamAtt,SBeamAtt,60mm sphere
0
0
0
0
Fix
 
0
0.16
0
0
0
 
 
 
0
 
0
319.2
0
Front
100
 
S:100 R:100
 
0
0
0
 
0
 
 
 
0
 
 
0
0
0
0
0
 
 
 
 
0
0


0
0
#HDR
-1
-1
#GR
nm
%T
1.0
0.0
900.000000
-1.000000
576
8
120.034300
101.923800
#DATA
900.000000	113.619200
899.000000	109.522700
898.000000	113.561200
897.000000	113.724700
896.000000	116.808700
895.000000	112.425300
894.000000	112.074100
893.000000	113.599600
892.000000	113.805700
891.000000	113.397000
890.000000	111.499500
889.000000	114.455900
888.000000	113.092300
887.000000	115.967500
886.000000	115.811400
885.000000	114.298500
884.000000	115.238600
883.000000	113.785700
882.000000	112.810700
881.000000	114.771200
880.000000	113.700300
879.000000	115.829800
878.000000	114.761200
877.000000	115.491200
876.000000	115.714000
875.000000	115.381700
874.000000	114.577900
873.000000	116.000400
872.000000	116.005800
871.000000	116.065300
870.000000	115.223300
869.000000	115.501600
868.000000	116.671400
867.000000	117.173500
866.000000	116.803700
865.000000	116.813900
864.000000	117.087100
863.000000	116.698600
862.000000	116.094900
861.000000	116.988600
860.000000	117.960000
859.000000	116.744400
858.000000	117.196100
857.000000	116.627900
856.000000	117.624200
855.000000	117.699700
854.000000	117.524900
853.000000	118.040500
852.000000	117.643700
851.000000	117.665600
850.000000	118.009200
849.000000	118.355500
848.000000	118.896200
847.000000	118.373100
846.000000	118.399300
845.000000	118.554800
844.000000	118.340300
843.000000	118.489600
842.000000	118.652600
841.000000	118.642700
840.000000	118.720800
839.000000	118.753300
838.000000	118.845800
837.000000	119.161500
836.000000	119.123400
835.000000	119.014000
834.000000	118.980000
833.000000	119.373000
832.000000	119.420400
831.000000	119.496500
830.000000	119.608500
829.000000	119.398000
828.000000	119.318100
827.000000	119.440400
826.000000	119.665600
825.000000	120.034300
824.000000	119.992700
823.000000	119.796900
822.000000	119.695900
821.000000	119.821900
820.000000	119.821000
819.000000	119.655900
818.000000	119.543200
817.000000	119.648000
816.000000	119.708000
815.000000	119.672000
814.000000	119.768600
813.000000	119.647900
812.000000	119.727800
811.000000	119.845200
810.000000	119.818200
809.000000	119.504900
808.000000	119.462100
807.000000	119.510400
806.000000	119.529200
805.000000	119.449500
804.000000	119.543900
803.000000	119.515600
802.000000	119.509900
801.000000	119.360000
800.000000	119.320400
799.000000	119.255700
798.000000	119.208400
797.000000	119.264900
796.000000	119.296300
795.000000	119.328000
794.000000	119.146200
793.000000	119.053700
792.000000	119.141200
791.000000	119.160900
790.000000	119.164900
789.000000	119.048400
788.000000	118.835600
787.000000	118.959000
786.000000	118.962500
785.000000	118.873300
784.000000	118.875100
783.000000	118.832200
782.000000	118.667800
781.000000	118.591200
780.000000	118.656000
779.000000	118.660800
778.000000	118.561400
777.000000	118.391200
776.000000	118.301800
775.000000	118.480200
774.000000	118.578900
773.000000	118.410000
772.000000	118.236300
771.000000	118.205400
770.000000	118.263500
769.000000	118.202500
768.000000	118.149900
767.000000	118.252200
766.000000	118.265900
765.000000	117.951400
764.000000	117.905500
763.000000	118.137000
762.000000	118.040300
761.000000	117.868100
760.000000	117.849000
759.000000	117.832300
758.000000	117.740200
757.000000	117.585500
756.000000	117.591700
755.000000	117.557400
754.000000	117.524700
753.000000	117.588300
752.000000	117.430700
751.000000	117.385300
750.000000	117.457300
749.000000	117.285200
748.000000	117.236500
747.000000	117.214200
746.000000	117.225800
745.000000	117.321400
744.000000	117.186700
743.000000	117.143000
742.000000	117.139500
741.000000	117.062700
740.000000	117.077800
739.000000	116.886200
738.000000	116.789200
737.000000	116.770100
736.000000	116.859600
735.000000	116.829100
734.000000	116.747600
733.000000	116.761500
732.000000	116.641500
731.000000	116.582800
730.000000	116.611000
729.000000	116.643500
728.000000	116.409900
727.000000	116.489500
726.000000	116.547100
725.000000	116.497000
724.000000	116.401100
723.000000	116.436900
722.000000	116.413900
721.000000	116.261000
720.000000	116.297400
719.000000	116.202800
718.000000	116.040600
717.000000	116.067000
716.000000	116.194000
715.000000	116.101200
714.000000	116.051700
713.000000	116.050600
712.000000	116.056500
711.000000	115.948600
710.000000	115.966200
709.000000	116.021600
708.000000	115.910100
707.000000	115.885200
706.000000	115.843000
705.000000	115.732000
704.000000	115.767200
703.000000	115.750400
702.000000	115.640900
701.000000	115.762900
700.000000	115.684500
699.000000	115.548700
698.000000	115.557800
697.000000	115.665600
696.000000	115.611100
695.000000	115.522800
694.000000	115.438100
693.000000	115.593300
692.000000	115.446000
691.000000	115.367700
690.000000	115.461500
689.000000	115.565100
688.000000	115.549400
687.000000	115.447100
686.000000	115.457000
685.000000	115.482700
684.000000	115.365600
683.000000	115.499900
682.000000	115.331600
681.000000	115.389300
680.000000	115.365600
679.000000	115.291700
678.000000	115.261000
677.000000	115.248300
676.000000	115.205100
675.000000	115.232400
674.000000	115.222500
673.000000	115.262700
672.000000	115.222900
671.000000	115.151400
670.000000	115.076100
669.000000	115.168800
668.000000	115.041100
667.000000	115.061000
666.000000	115.118700
665.000000	115.040400
664.000000	115.058000
663.000000	115.000900
662.000000	114.957300
661.000000	115.064300
660.000000	114.947200
659.000000	114.943200
658.000000	114.890000
657.000000	114.849100
656.000000	114.887900
655.000000	114.872600
654.000000	114.854900
653.000000	114.810200
652.000000	114.907600
651.000000	114.793800
650.000000	114.797500
649.000000	114.784000
648.000000	114.737600
647.000000	114.694500
646.000000	114.669000
645.000000	114.705200
644.000000	114.642700
643.000000	114.648500
642.000000	114.669800
641.000000	114.643300
640.000000	114.588700
639.000000	114.607700
638.000000	114.584500
637.000000	114.561900
636.000000	114.595900
635.000000	114.571800
634.000000	114.543900
633.000000	114.447200
632.000000	114.608000
631.000000	114.543800
630.000000	114.500200
629.000000	114.452900
628.000000	114.356300
627.000000	114.478700
626.000000	114.482100
625.000000	114.412000
624.000000	114.374200
623.000000	114.408500
622.000000	114.388200
621.000000	114.345700
620.000000	114.399000
619.000000	114.322100
618.000000	114.365000
617.000000	114.416200
616.000000	114.352500
615.000000	114.291200
614.000000	114.322600
613.000000	114.223300
612.000000	114.302100
611.000000	114.230700
610.000000	114.253800
609.000000	114.192300
608.000000	114.208500
607.000000	114.213700
606.000000	114.227200
605.000000	114.265600
604.000000	114.297700
603.000000	114.150600
602.000000	114.170000
601.000000	114.271500
600.000000	114.208500
599.000000	114.173200
598.000000	114.198600
597.000000	114.160200
596.000000	114.195900
595.000000	114.105800
594.000000	114.127800
593.000000	114.166600
592.000000	114.235200
591.000000	114.208700
590.000000	114.223600
589.000000	114.222500
588.000000	114.140300
587.000000	114.082200
586.000000	114.140900
585.000000	114.114400
584.000000	114.119600
583.000000	114.149500
582.000000	114.158300
581.000000	114.169800
580.000000	114.084200
579.000000	114.115900
578.000000	114.123400
577.000000	114.108800
576.000000	114.176900
575.000000	114.109200
574.000000	114.104100
573.000000	114.105900
572.000000	114.180200
571.000000	114.087300
570.000000	114.096700
569.000000	114.103700
568.000000	114.091400
567.000000	114.128600
566.000000	114.085100
565.000000	114.041400
564.000000	114.034400
563.000000	114.071700
562.000000	114.247100
561.000000	114.315400
560.000000	114.302200
559.000000	114.322000
558.000000	114.384100
557.000000	114.379300
556.000000	114.309600
555.000000	114.337200
554.000000	114.329800
553.000000	114.374800
552.000000	114.378800
551.000000	114.405300
550.000000	114.401100
549.000000	114.385600
548.000000	114.404300
547.000000	114.415800
546.000000	114.446700
545.000000	114.436500
544.000000	114.452100
543.000000	114.474600
542.000000	114.486600
541.000000	114.523200
540.000000	114.542400
539.000000	114.499000
538.000000	114.503900
537.000000	114.545800
536.000000	114.595600
535.000000	114.616500
534.000000	114.634900
533.000000	114.649400
532.000000	114.656900
531.000000	114.676700
530.000000	114.749800
529.000000	114.768000
528.000000	114.762800
527.000000	114.776000
526.000000	114.829000
525.000000	114.866200
524.000000	114.873600
523.000000	114.855100
522.000000	114.839800
521.000000	114.883400
520.000000	114.898100
519.000000	114.873500
518.000000	114.839900
517.000000	114.788100
516.000000	114.731200
515.000000	114.677900
514.000000	114.566100
513.000000	114.435300
512.000000	114.319500
511.000000	114.158300
510.000000	113.966200
509.000000	113.801900
508.000000	113.595300
507.000000	113.386200
506.000000	113.223500
505.000000	113.055100
504.000000	112.893800
503.000000	112.778200
502.000000	112.664000
501.000000	112.565900
500.000000	112.525700
499.000000	112.546900
498.000000	112.551200
497.000000	112.547800
496.000000	112.569500
495.000000	112.646100
494.000000	112.746600
493.000000	112.786200
492.000000	112.855400
491.000000	112.976300
490.000000	113.074700
489.000000	113.140900
488.000000	113.220500
487.000000	113.284300
486.000000	113.395100
485.000000	113.481400
484.000000	113.642300
483.000000	113.892000
482.000000	114.134800
481.000000	114.402900
480.000000	114.532600
479.000000	114.510700
478.000000	114.405200
477.000000	114.292900
476.000000	114.309100
475.000000	114.267400
474.000000	114.166300
473.000000	114.135700
472.000000	114.135200
471.000000	114.110100
470.000000	114.046200
469.000000	113.958800
468.000000	113.863000
467.000000	113.764900
466.000000	113.585900
465.000000	113.464100
464.000000	113.317500
463.000000	113.214600
462.000000	113.084300
461.000000	112.933400
460.000000	112.843500
459.000000	112.729100
458.000000	112.661800
457.000000	112.615800
456.000000	112.598500
455.000000	112.587300
454.000000	112.605600
453.000000	112.556200
452.000000	112.572000
451.000000	112.626900
450.000000	112.621100
449.000000	112.574700
448.000000	112.594800
447.000000	112.606100
446.000000	112.599200
445.000000	112.726400
444.000000	112.929400
443.000000	113.034500
442.000000	113.035300
441.000000	113.012300
440.000000	112.956400
439.000000	112.909600
438.000000	112.815400
437.000000	112.798200
436.000000	112.774700
435.000000	112.841800
434.000000	112.777800
433.000000	112.713500
432.000000	112.667000
431.000000	112.629800
430.000000	112.558100
429.000000	112.566900
428.000000	112.519600
427.000000	112.534600
426.000000	112.435700
425.000000	112.395900
424.000000	112.413200
423.000000	112.302500
422.000000	112.178600
421.000000	112.227500
420.000000	112.171400
419.000000	112.056400
418.000000	111.968700
417.000000	111.926700
416.000000	111.711100
415.000000	111.593100
414.000000	111.469200
413.000000	111.262800
412.000000	111.193900
411.000000	110.942200
410.000000	110.646900
409.000000	110.530100
408.000000	110.235200
407.000000	109.996200
406.000000	109.684600
405.000000	109.400800
404.000000	109.145600
403.000000	108.934000
402.000000	108.512900
401.000000	108.300500
400.000000	108.099600
399.000000	107.812600
398.000000	107.525400
397.000000	107.238600
396.000000	107.168900
395.000000	106.928500
394.000000	106.737900
393.000000	106.555800
392.000000	106.440500
391.000000	106.222700
390.000000	106.183100
389.000000	105.971300
388.000000	105.713900
387.000000	105.745600
386.000000	105.590700
385.000000	105.660000
384.000000	105.390800
383.000000	105.325300
382.000000	105.241800
381.000000	105.225200
380.000000	105.146000
379.000000	105.389300
378.000000	106.836600
377.000000	106.478400
376.000000	106.661300
375.000000	106.108900
374.000000	105.848600
373.000000	105.609600
372.000000	105.372700
371.000000	105.277900
370.000000	105.102800
369.000000	105.027200
368.000000	104.917300
367.000000	104.816100
366.000000	104.667500
365.000000	104.686500
364.000000	104.483800
363.000000	104.449000
362.000000	104.318400
361.000000	104.261500
360.000000	104.400300
359.000000	104.088700
358.000000	104.006000
357.000000	103.930300
356.000000	104.003300
355.000000	103.830500
354.000000	103.718200
353.000000	103.664400
352.000000	103.729900
351.000000	103.527500
350.000000	103.614500
349.000000	103.413600
348.000000	103.483500
347.000000	103.348400
346.000000	103.342200
345.000000	103.209100
344.000000	103.123000
343.000000	103.136400
342.000000	103.049600
341.000000	102.999800
340.000000	103.055500
339.000000	102.993700
338.000000	102.779400
337.000000	102.856800
336.000000	102.864700
335.000000	102.668000
334.000000	102.562700
333.000000	102.587800
332.000000	102.476700
331.000000	102.450600
330.000000	102.402900
329.000000	102.379400
328.000000	102.314500
327.000000	102.240000
326.000000	102.113200
325.000000	101.923800
