PE UV       SUBTECH     SPECTRUM    ASCII       PEDS        4.00        
   -1
J31.Sample.Raw.asc
18/05/25
08:46:08.00
18/05/25
08:46:08.00
Administrator
longitudinal
325.000000
1
Lambda 850
850L1710193
PerkinElmer UV WinLab 6.4.0.973 / 2.02.06 Lambda 800 UV/VIS, Jan 28 2016 16:58:34

0
0
2
0
0
UV/VIS
1
1
1
RBeamAtt,SBeamAtt,60mm sphere
0
0
0
0
Fix
 
0
0.16
0
0
0
 
 
 
0
 
0
319.2
0
Front
100
 
S:100 R:100
 
0
0
0
 
0
 
 
 
0
 
 
0
0
0
0
0
 
 
 
 
0
0


0
0
#HDR
-1
-1
#GR
nm
%T
1.0
0.0
900.000000
-1.000000
576
8
76.590449
0.019892
#DATA
900.000000	72.937584
899.000000	75.428838
898.000000	74.069577
897.000000	73.231497
896.000000	70.291511
895.000000	74.808962
894.000000	73.739874
893.000000	76.100708
892.000000	73.130608
891.000000	73.618262
890.000000	73.688492
889.000000	73.336193
888.000000	76.590449
887.000000	72.184621
886.000000	72.185726
885.000000	72.485903
884.000000	71.349704
883.000000	74.967505
882.000000	74.226381
881.000000	74.090451
880.000000	74.099013
879.000000	73.693126
878.000000	73.706793
877.000000	73.599893
876.000000	73.959244
875.000000	73.021458
874.000000	73.826366
873.000000	73.841297
872.000000	73.159359
871.000000	73.963881
870.000000	74.153492
869.000000	74.088584
868.000000	73.078492
867.000000	72.536111
866.000000	73.235437
865.000000	73.418831
864.000000	73.252989
863.000000	73.216560
862.000000	73.667060
861.000000	73.195679
860.000000	72.352492
859.000000	73.597277
858.000000	73.447837
857.000000	73.961462
856.000000	73.354633
855.000000	73.370026
854.000000	73.485534
853.000000	72.953605
852.000000	72.812144
851.000000	72.949868
850.000000	72.753311
849.000000	73.160436
848.000000	72.558164
847.000000	72.753438
846.000000	72.798066
845.000000	72.523508
844.000000	72.800728
843.000000	72.702414
842.000000	72.756518
841.000000	72.712523
840.000000	72.719860
839.000000	72.883111
838.000000	72.586999
837.000000	72.386551
836.000000	72.402400
835.000000	72.255281
834.000000	72.412422
833.000000	72.065207
832.000000	71.850873
831.000000	71.826120
830.000000	71.921895
829.000000	72.069968
828.000000	72.124933
827.000000	72.011648
826.000000	71.980837
825.000000	71.669265
824.000000	71.580938
823.000000	71.813044
822.000000	71.926691
821.000000	71.679718
820.000000	71.731833
819.000000	71.732693
818.000000	71.844237
817.000000	71.825689
816.000000	71.850921
815.000000	71.874290
814.000000	71.683313
813.000000	71.696787
812.000000	71.668568
811.000000	71.489805
810.000000	71.454337
809.000000	71.776722
808.000000	71.741749
807.000000	71.684724
806.000000	71.733183
805.000000	71.664595
804.000000	71.535896
803.000000	71.575091
802.000000	71.519849
801.000000	71.519772
800.000000	71.508393
799.000000	71.592553
798.000000	71.598646
797.000000	71.467968
796.000000	71.544130
795.000000	71.536102
794.000000	71.536314
793.000000	71.540742
792.000000	71.505911
791.000000	71.424771
790.000000	71.424807
789.000000	71.449847
788.000000	71.522338
787.000000	71.387453
786.000000	71.272124
785.000000	71.300788
784.000000	71.258910
783.000000	71.300708
782.000000	71.416677
781.000000	71.389192
780.000000	71.312534
779.000000	71.344623
778.000000	71.329539
777.000000	71.330639
776.000000	71.376429
775.000000	71.254944
774.000000	71.230632
773.000000	71.254202
772.000000	71.269399
771.000000	71.288621
770.000000	71.168112
769.000000	71.162370
768.000000	71.111613
767.000000	71.011364
766.000000	71.064187
765.000000	71.178045
764.000000	71.099058
763.000000	70.983773
762.000000	70.975760
761.000000	71.044583
760.000000	71.012737
759.000000	70.890070
758.000000	70.875708
757.000000	70.910104
756.000000	70.968359
755.000000	70.956656
754.000000	70.911562
753.000000	70.851097
752.000000	70.943970
751.000000	70.912201
750.000000	70.809222
749.000000	70.957205
748.000000	70.874770
747.000000	70.847901
746.000000	70.744410
745.000000	70.604510
744.000000	70.688056
743.000000	70.657914
742.000000	70.680855
741.000000	70.678278
740.000000	70.652933
739.000000	70.704668
738.000000	70.640265
737.000000	70.637261
736.000000	70.592660
735.000000	70.558791
734.000000	70.606162
733.000000	70.552280
732.000000	70.545818
731.000000	70.561095
730.000000	70.524650
729.000000	70.511773
728.000000	70.644507
727.000000	70.488842
726.000000	70.397118
725.000000	70.381040
724.000000	70.421929
723.000000	70.448372
722.000000	70.399841
721.000000	70.426884
720.000000	70.383517
719.000000	70.421969
718.000000	70.383383
717.000000	70.452153
716.000000	70.320068
715.000000	70.348799
714.000000	70.368379
713.000000	70.316741
712.000000	70.187796
711.000000	70.201624
710.000000	70.152510
709.000000	70.102981
708.000000	70.215624
707.000000	70.215783
706.000000	70.216673
705.000000	70.233125
704.000000	70.177390
703.000000	70.165891
702.000000	70.116282
701.000000	69.987017
700.000000	70.116999
699.000000	70.155874
698.000000	70.078783
697.000000	69.933584
696.000000	69.988262
695.000000	69.908018
694.000000	70.039354
693.000000	69.925593
692.000000	69.913120
691.000000	69.868603
690.000000	69.795300
689.000000	69.714040
688.000000	69.735542
687.000000	69.761042
686.000000	69.708983
685.000000	69.646536
684.000000	69.792122
683.000000	69.649844
682.000000	69.725903
681.000000	69.613560
680.000000	69.617373
679.000000	69.607960
678.000000	69.599951
677.000000	69.597469
676.000000	69.540671
675.000000	69.451213
674.000000	69.410662
673.000000	69.378472
672.000000	69.335002
671.000000	69.376230
670.000000	69.357234
669.000000	69.244709
668.000000	69.419886
667.000000	69.306020
666.000000	69.204829
665.000000	69.242544
664.000000	69.160771
663.000000	69.191893
662.000000	69.108965
661.000000	69.076160
660.000000	69.156273
659.000000	69.066896
658.000000	69.116633
657.000000	69.103458
656.000000	68.995168
655.000000	68.920352
654.000000	68.961533
653.000000	69.030975
652.000000	68.869335
651.000000	68.891351
650.000000	68.867789
649.000000	68.826840
648.000000	68.780679
647.000000	68.820650
646.000000	68.796274
645.000000	68.640393
644.000000	68.668393
643.000000	68.586767
642.000000	68.568533
641.000000	68.548271
640.000000	68.535554
639.000000	68.462939
638.000000	68.477499
637.000000	68.400576
636.000000	68.381940
635.000000	68.367522
634.000000	68.296348
633.000000	68.274977
632.000000	68.165660
631.000000	68.183699
630.000000	68.170274
629.000000	68.146548
628.000000	68.198079
627.000000	68.070305
626.000000	67.968879
625.000000	67.996102
624.000000	67.972847
623.000000	67.897315
622.000000	67.871336
621.000000	67.845140
620.000000	67.780750
619.000000	67.758115
618.000000	67.746951
617.000000	67.618134
616.000000	67.649155
615.000000	67.646590
614.000000	67.587511
613.000000	67.555481
612.000000	67.445567
611.000000	67.483435
610.000000	67.431455
609.000000	67.417593
608.000000	67.390606
607.000000	67.337719
606.000000	67.274782
605.000000	67.185837
604.000000	67.100213
603.000000	67.145683
602.000000	67.085924
601.000000	66.981093
600.000000	66.985732
599.000000	66.912463
598.000000	66.917808
597.000000	66.843961
596.000000	66.765707
595.000000	66.812818
594.000000	66.744036
593.000000	66.660127
592.000000	66.589282
591.000000	66.573562
590.000000	66.523293
589.000000	66.485237
588.000000	66.448923
587.000000	66.441741
586.000000	66.376295
585.000000	66.378301
584.000000	66.326906
583.000000	66.282200
582.000000	66.189143
581.000000	66.114945
580.000000	66.141411
579.000000	66.120760
578.000000	66.042547
577.000000	66.007530
576.000000	65.940659
575.000000	65.920890
574.000000	65.905695
573.000000	65.847691
572.000000	65.729610
571.000000	65.782256
570.000000	65.731086
569.000000	65.656065
568.000000	65.623526
567.000000	65.559553
566.000000	65.499439
565.000000	65.484815
564.000000	65.461475
563.000000	65.388348
562.000000	65.315969
561.000000	65.337566
560.000000	65.297606
559.000000	65.216406
558.000000	65.164127
557.000000	65.146141
556.000000	65.123752
555.000000	65.046109
554.000000	65.030377
553.000000	64.974802
552.000000	64.927766
551.000000	64.857660
550.000000	64.797629
549.000000	64.798454
548.000000	64.791970
547.000000	64.719121
546.000000	64.669755
545.000000	64.659527
544.000000	64.598465
543.000000	64.574499
542.000000	64.538470
541.000000	64.445195
540.000000	64.413964
539.000000	64.417768
538.000000	64.376497
537.000000	64.329639
536.000000	64.255608
535.000000	64.229932
534.000000	64.212731
533.000000	64.166755
532.000000	64.145376
531.000000	64.120174
530.000000	64.051092
529.000000	64.006169
528.000000	63.987198
527.000000	63.953353
526.000000	63.893180
525.000000	63.847503
524.000000	63.799689
523.000000	63.776619
522.000000	63.764479
521.000000	63.693449
520.000000	63.644307
519.000000	63.597871
518.000000	63.561271
517.000000	63.526968
516.000000	63.480378
515.000000	63.422508
514.000000	63.391090
513.000000	63.373190
512.000000	63.306085
511.000000	63.262154
510.000000	63.222692
509.000000	63.167047
508.000000	63.158511
507.000000	63.118351
506.000000	63.057139
505.000000	63.022544
504.000000	62.980607
503.000000	62.912070
502.000000	62.879624
501.000000	62.840256
500.000000	62.789745
499.000000	62.732336
498.000000	62.683383
497.000000	62.643517
496.000000	62.580450
495.000000	62.510464
494.000000	62.404720
493.000000	62.391410
492.000000	62.392407
491.000000	62.311919
490.000000	62.220992
489.000000	62.147641
488.000000	62.082662
487.000000	62.047080
486.000000	61.988216
485.000000	61.980113
484.000000	61.916118
483.000000	61.847715
482.000000	61.803674
481.000000	61.730428
480.000000	61.705663
479.000000	61.675459
478.000000	61.615818
477.000000	61.594552
476.000000	61.537620
475.000000	61.467838
474.000000	61.480051
473.000000	61.455443
472.000000	61.357057
471.000000	61.269511
470.000000	61.238779
469.000000	61.197731
468.000000	61.135136
467.000000	61.070945
466.000000	61.036801
465.000000	60.956637
464.000000	60.863856
463.000000	60.786683
462.000000	60.736371
461.000000	60.681694
460.000000	60.617049
459.000000	60.558897
458.000000	60.483056
457.000000	60.419586
456.000000	60.316434
455.000000	60.218781
454.000000	60.137506
453.000000	60.095579
452.000000	60.027360
451.000000	59.918634
450.000000	59.801050
449.000000	59.764405
448.000000	59.678600
447.000000	59.567999
446.000000	59.472891
445.000000	59.332242
444.000000	59.240729
443.000000	59.184585
442.000000	59.104811
441.000000	59.003312
440.000000	58.927604
439.000000	58.815017
438.000000	58.722657
437.000000	58.664411
436.000000	58.560386
435.000000	58.410270
434.000000	58.302875
433.000000	58.329481
432.000000	58.206928
431.000000	58.124848
430.000000	58.003200
429.000000	57.850576
428.000000	57.781400
427.000000	57.663954
426.000000	57.562233
425.000000	57.441241
424.000000	57.286511
423.000000	57.215467
422.000000	57.119540
421.000000	56.940144
420.000000	56.824823
419.000000	56.706712
418.000000	56.586439
417.000000	56.437919
416.000000	56.332898
415.000000	56.180983
414.000000	56.097021
413.000000	55.930374
412.000000	55.724280
411.000000	55.608055
410.000000	55.510457
409.000000	55.290912
408.000000	55.132480
407.000000	55.021992
406.000000	54.798395
405.000000	54.707095
404.000000	54.500960
403.000000	54.275249
402.000000	54.226272
401.000000	54.008707
400.000000	53.866619
399.000000	53.685376
398.000000	53.485409
397.000000	53.351778
396.000000	53.124087
395.000000	52.881411
394.000000	52.671076
393.000000	52.451486
392.000000	52.153832
391.000000	52.061565
390.000000	51.683648
389.000000	51.559809
388.000000	51.409796
387.000000	51.115224
386.000000	50.880807
385.000000	50.500757
384.000000	50.400225
383.000000	50.077617
382.000000	49.817468
381.000000	49.505632
380.000000	49.142621
379.000000	49.039608
378.000000	48.533368
377.000000	48.181603
376.000000	47.716557
375.000000	47.482633
374.000000	47.009975
373.000000	46.553249
372.000000	46.141648
371.000000	45.525319
370.000000	44.918023
369.000000	44.164274
368.000000	43.375020
367.000000	42.358474
366.000000	41.510498
365.000000	40.316564
364.000000	39.076776
363.000000	37.607349
362.000000	36.099384
361.000000	34.302787
360.000000	32.330942
359.000000	30.338356
358.000000	28.045209
357.000000	25.559630
356.000000	22.964560
355.000000	20.314744
354.000000	17.569433
353.000000	14.839328
352.000000	12.124855
351.000000	9.622467
350.000000	7.374257
349.000000	5.419403
348.000000	3.776737
347.000000	2.463028
346.000000	1.510806
345.000000	0.843433
344.000000	0.445681
343.000000	0.216122
342.000000	0.093159
341.000000	0.039806
340.000000	0.019892
339.000000	0.020972
338.000000	0.020335
337.000000	0.020028
336.000000	0.020221
335.000000	0.026201
334.000000	0.027495
333.000000	0.025052
332.000000	0.020980
331.000000	0.021083
330.000000	0.025683
329.000000	0.029889
328.000000	0.029321
327.000000	0.026702
326.000000	0.025658
325.000000	0.029728
