PE UV       SUBTECH     SPECTRUM    ASCII       PEDS        4.00        
   -1
J33.Sample.Raw.asc
18/05/25
08:49:55.00
18/05/25
08:49:55.00
Administrator
longitudinal
325.000000
1
Lambda 850
850L1710193
PerkinElmer UV WinLab 6.4.0.973 / 2.02.06 Lambda 800 UV/VIS, Jan 28 2016 16:58:34

0
0
2
0
0
UV/VIS
1
1
1
RBeamAtt,SBeamAtt,60mm sphere
0
0
0
0
Fix
 
0
0.16
0
0
0
 
 
 
0
 
0
319.2
0
Front
100
 
S:100 R:100
 
0
0
0
 
0
 
 
 
0
 
 
0
0
0
0
0
 
 
 
 
0
0


0
0
#HDR
-1
-1
#GR
nm
%T
1.0
0.0
900.000000
-1.000000
576
8
74.959113
0.014497
#DATA
900.000000	71.038874
899.000000	72.754233
898.000000	72.348302
897.000000	71.727338
896.000000	69.360330
895.000000	73.914768
894.000000	74.612065
893.000000	69.978944
892.000000	73.492365
891.000000	74.310343
890.000000	74.223920
889.000000	73.242008
888.000000	74.207439
887.000000	72.594218
886.000000	72.291674
885.000000	73.430622
884.000000	74.138093
883.000000	74.747793
882.000000	74.959113
881.000000	74.207641
880.000000	74.354861
879.000000	73.060819
878.000000	73.040104
877.000000	73.204365
876.000000	73.174810
875.000000	72.727651
874.000000	73.673632
873.000000	74.203020
872.000000	72.700934
871.000000	72.063916
870.000000	73.074370
869.000000	74.033520
868.000000	73.125376
867.000000	72.543365
866.000000	72.701378
865.000000	73.413952
864.000000	73.693515
863.000000	72.857943
862.000000	73.722446
861.000000	73.122680
860.000000	71.984571
859.000000	72.840582
858.000000	72.992019
857.000000	73.309903
856.000000	72.689464
855.000000	72.695852
854.000000	73.130885
853.000000	72.339239
852.000000	72.935822
851.000000	73.152816
850.000000	72.204032
849.000000	72.504108
848.000000	71.990274
847.000000	72.034947
846.000000	72.272133
845.000000	72.324022
844.000000	72.535307
843.000000	72.401291
842.000000	72.180129
841.000000	71.976278
840.000000	72.116933
839.000000	72.315885
838.000000	72.050169
837.000000	71.702773
836.000000	71.728812
835.000000	71.523434
834.000000	71.811229
833.000000	71.558811
832.000000	71.671255
831.000000	71.564690
830.000000	71.205475
829.000000	71.451532
828.000000	71.685101
827.000000	71.540032
826.000000	71.172166
825.000000	71.081766
824.000000	71.144078
823.000000	71.047498
822.000000	71.219482
821.000000	71.043941
820.000000	71.024111
819.000000	71.100213
818.000000	71.193008
817.000000	71.171687
816.000000	71.108280
815.000000	70.939401
814.000000	70.902724
813.000000	70.949344
812.000000	70.866165
811.000000	70.562526
810.000000	70.497220
809.000000	70.689068
808.000000	70.888173
807.000000	70.957088
806.000000	70.738447
805.000000	70.720849
804.000000	70.704570
803.000000	70.724826
802.000000	70.617832
801.000000	70.593666
800.000000	70.450987
799.000000	70.574656
798.000000	70.568098
797.000000	70.403950
796.000000	70.413919
795.000000	70.324735
794.000000	70.413996
793.000000	70.435694
792.000000	70.335786
791.000000	70.347740
790.000000	70.338749
789.000000	70.317283
788.000000	70.344072
787.000000	70.150136
786.000000	70.210697
785.000000	70.220563
784.000000	70.007933
783.000000	69.998283
782.000000	70.112196
781.000000	70.146773
780.000000	69.972947
779.000000	69.910956
778.000000	69.974376
777.000000	69.943121
776.000000	70.009417
775.000000	69.900287
774.000000	69.740485
773.000000	69.812600
772.000000	69.820774
771.000000	69.799688
770.000000	69.759731
769.000000	69.691081
768.000000	69.630698
767.000000	69.461202
766.000000	69.439965
765.000000	69.606211
764.000000	69.529751
763.000000	69.388083
762.000000	69.368258
761.000000	69.404444
760.000000	69.392613
759.000000	69.306209
758.000000	69.359063
757.000000	69.380153
756.000000	69.280145
755.000000	69.201173
754.000000	69.205537
753.000000	69.146845
752.000000	69.210096
751.000000	69.224341
750.000000	69.091661
749.000000	69.094651
748.000000	69.049912
747.000000	69.045901
746.000000	68.956919
745.000000	68.815919
744.000000	68.845099
743.000000	68.820416
742.000000	68.734116
741.000000	68.747176
740.000000	68.754623
739.000000	68.852439
738.000000	68.831964
737.000000	68.770344
736.000000	68.725890
735.000000	68.640433
734.000000	68.629162
733.000000	68.600266
732.000000	68.638349
731.000000	68.628220
730.000000	68.542162
729.000000	68.436818
728.000000	68.560148
727.000000	68.519223
726.000000	68.418948
725.000000	68.449745
724.000000	68.392309
723.000000	68.303691
722.000000	68.292532
721.000000	68.305107
720.000000	68.239789
719.000000	68.293793
718.000000	68.404248
717.000000	68.228179
716.000000	68.090263
715.000000	68.163550
714.000000	68.178493
713.000000	68.176554
712.000000	68.096401
711.000000	68.074129
710.000000	68.034134
709.000000	68.041382
708.000000	68.038333
707.000000	67.945605
706.000000	67.983219
705.000000	68.002713
704.000000	67.925630
703.000000	67.894625
702.000000	67.874774
701.000000	67.802724
700.000000	67.768111
699.000000	67.802234
698.000000	67.759944
697.000000	67.718838
696.000000	67.653019
695.000000	67.620764
694.000000	67.650628
693.000000	67.567584
692.000000	67.663150
691.000000	67.614159
690.000000	67.437631
689.000000	67.398635
688.000000	67.344010
687.000000	67.351367
686.000000	67.325065
685.000000	67.216561
684.000000	67.261558
683.000000	67.191920
682.000000	67.203351
681.000000	67.130315
680.000000	67.092877
679.000000	67.014711
678.000000	67.035858
677.000000	66.972788
676.000000	66.939398
675.000000	66.906530
674.000000	66.926772
673.000000	66.786740
672.000000	66.715991
671.000000	66.702967
670.000000	66.714027
669.000000	66.590431
668.000000	66.665392
667.000000	66.591460
666.000000	66.413624
665.000000	66.451003
664.000000	66.413548
663.000000	66.330437
662.000000	66.278871
661.000000	66.190991
660.000000	66.248156
659.000000	66.149542
658.000000	66.128819
657.000000	66.016538
656.000000	65.978053
655.000000	65.788621
654.000000	65.849346
653.000000	65.730135
652.000000	65.710101
651.000000	65.597271
650.000000	65.577125
649.000000	65.536050
648.000000	65.507645
647.000000	65.475415
646.000000	65.379832
645.000000	65.252927
644.000000	65.205460
643.000000	65.152095
642.000000	65.024531
641.000000	65.042266
640.000000	64.933977
639.000000	64.889794
638.000000	64.814264
637.000000	64.695767
636.000000	64.563305
635.000000	64.566324
634.000000	64.450748
633.000000	64.481263
632.000000	64.259912
631.000000	64.187499
630.000000	64.163469
629.000000	64.052549
628.000000	64.060310
627.000000	63.942899
626.000000	63.804909
625.000000	63.761756
624.000000	63.700992
623.000000	63.545104
622.000000	63.481286
621.000000	63.434480
620.000000	63.396446
619.000000	63.288288
618.000000	63.171163
617.000000	63.083549
616.000000	62.975536
615.000000	62.947629
614.000000	62.814177
613.000000	62.776684
612.000000	62.723170
611.000000	62.618893
610.000000	62.510218
609.000000	62.435471
608.000000	62.334064
607.000000	62.249975
606.000000	62.152885
605.000000	61.981209
604.000000	61.922943
603.000000	61.900156
602.000000	61.819042
601.000000	61.609850
600.000000	61.600669
599.000000	61.534143
598.000000	61.429562
597.000000	61.371564
596.000000	61.262970
595.000000	61.212664
594.000000	61.112542
593.000000	60.985612
592.000000	60.880447
591.000000	60.770940
590.000000	60.696038
589.000000	60.575018
588.000000	60.498264
587.000000	60.432478
586.000000	60.368544
585.000000	60.261807
584.000000	60.213408
583.000000	60.097942
582.000000	59.978731
581.000000	59.901392
580.000000	59.841854
579.000000	59.750044
578.000000	59.684254
577.000000	59.608812
576.000000	59.458962
575.000000	59.431492
574.000000	59.320305
573.000000	59.214028
572.000000	59.094396
571.000000	59.050043
570.000000	58.986018
569.000000	58.892306
568.000000	58.826520
567.000000	58.717359
566.000000	58.648675
565.000000	58.557682
564.000000	58.474285
563.000000	58.407388
562.000000	58.305375
561.000000	58.248670
560.000000	58.163272
559.000000	58.071500
558.000000	57.974841
557.000000	57.915637
556.000000	57.839674
555.000000	57.755394
554.000000	57.682249
553.000000	57.577106
552.000000	57.497980
551.000000	57.430993
550.000000	57.366406
549.000000	57.281948
548.000000	57.198549
547.000000	57.145604
546.000000	57.065603
545.000000	56.979897
544.000000	56.909484
543.000000	56.844837
542.000000	56.765770
541.000000	56.680044
540.000000	56.615629
539.000000	56.568966
538.000000	56.506896
537.000000	56.430790
536.000000	56.351815
535.000000	56.275318
534.000000	56.218656
533.000000	56.157991
532.000000	56.102337
531.000000	56.035184
530.000000	55.945631
529.000000	55.890144
528.000000	55.826452
527.000000	55.769673
526.000000	55.699083
525.000000	55.605043
524.000000	55.535476
523.000000	55.479643
522.000000	55.427996
521.000000	55.360043
520.000000	55.285510
519.000000	55.231363
518.000000	55.178993
517.000000	55.108064
516.000000	55.026096
515.000000	54.964732
514.000000	54.923228
513.000000	54.878783
512.000000	54.805611
511.000000	54.753356
510.000000	54.699464
509.000000	54.628789
508.000000	54.589671
507.000000	54.549584
506.000000	54.489307
505.000000	54.410106
504.000000	54.356749
503.000000	54.307659
502.000000	54.249361
501.000000	54.218640
500.000000	54.154651
499.000000	54.064306
498.000000	54.012041
497.000000	53.991815
496.000000	53.944097
495.000000	53.872882
494.000000	53.838253
493.000000	53.786456
492.000000	53.708285
491.000000	53.654262
490.000000	53.622251
489.000000	53.569399
488.000000	53.499410
487.000000	53.463366
486.000000	53.369678
485.000000	53.315698
484.000000	53.237747
483.000000	53.173796
482.000000	53.135240
481.000000	53.065263
480.000000	53.009274
479.000000	52.990507
478.000000	52.930898
477.000000	52.866101
476.000000	52.763078
475.000000	52.720198
474.000000	52.710388
473.000000	52.649522
472.000000	52.570022
471.000000	52.510076
470.000000	52.450586
469.000000	52.361204
468.000000	52.304612
467.000000	52.229994
466.000000	52.199789
465.000000	52.145392
464.000000	52.064068
463.000000	51.971566
462.000000	51.896948
461.000000	51.853128
460.000000	51.788893
459.000000	51.721162
458.000000	51.689126
457.000000	51.632187
456.000000	51.535589
455.000000	51.424717
454.000000	51.368138
453.000000	51.321295
452.000000	51.197811
451.000000	51.112390
450.000000	51.063255
449.000000	51.010840
448.000000	50.959281
447.000000	50.841651
446.000000	50.756755
445.000000	50.663199
444.000000	50.541843
443.000000	50.474855
442.000000	50.388949
441.000000	50.305055
440.000000	50.222210
439.000000	50.080153
438.000000	50.039002
437.000000	49.985638
436.000000	49.872356
435.000000	49.727406
434.000000	49.657734
433.000000	49.500991
432.000000	49.475090
431.000000	49.403000
430.000000	49.284858
429.000000	49.167206
428.000000	49.083449
427.000000	48.930907
426.000000	48.849253
425.000000	48.722151
424.000000	48.599008
423.000000	48.515839
422.000000	48.446139
421.000000	48.242989
420.000000	48.109322
419.000000	48.028404
418.000000	47.898832
417.000000	47.713280
416.000000	47.649696
415.000000	47.516916
414.000000	47.368690
413.000000	47.219915
412.000000	47.060585
411.000000	46.956523
410.000000	46.839451
409.000000	46.570482
408.000000	46.465013
407.000000	46.313327
406.000000	46.159898
405.000000	46.006154
404.000000	45.886321
403.000000	45.672701
402.000000	45.542788
401.000000	45.376891
400.000000	45.155764
399.000000	44.990196
398.000000	44.880558
397.000000	44.698737
396.000000	44.424828
395.000000	44.306616
394.000000	44.073192
393.000000	43.864341
392.000000	43.653872
391.000000	43.518288
390.000000	43.301712
389.000000	43.090063
388.000000	42.934940
387.000000	42.652744
386.000000	42.405723
385.000000	42.181904
384.000000	41.947684
383.000000	41.659601
382.000000	41.466794
381.000000	41.206574
380.000000	40.903696
379.000000	40.566927
378.000000	40.178647
377.000000	40.025583
376.000000	39.528301
375.000000	39.321961
374.000000	38.898956
373.000000	38.568179
372.000000	38.126953
371.000000	37.572558
370.000000	36.951061
369.000000	36.381718
368.000000	35.743295
367.000000	34.879374
366.000000	34.045143
365.000000	32.996709
364.000000	31.918728
363.000000	30.621164
362.000000	29.292340
361.000000	27.680304
360.000000	25.952128
359.000000	24.211370
358.000000	22.205546
357.000000	20.091061
356.000000	17.864914
355.000000	15.590313
354.000000	13.299787
353.000000	11.050756
352.000000	8.891265
351.000000	6.924151
350.000000	5.164046
349.000000	3.669440
348.000000	2.482135
347.000000	1.561321
346.000000	0.910470
345.000000	0.492011
344.000000	0.244174
343.000000	0.112860
342.000000	0.050558
341.000000	0.028641
340.000000	0.016593
339.000000	0.018448
338.000000	0.014497
337.000000	0.019347
336.000000	0.020415
335.000000	0.017435
334.000000	0.019208
333.000000	0.022322
332.000000	0.024493
331.000000	0.029282
330.000000	0.032812
329.000000	0.026959
328.000000	0.032058
327.000000	0.027484
326.000000	0.025952
325.000000	0.033849
