PE UV       SUBTECH     SPECTRUM    ASCII       PEDS        4.00        
   -1
J34.Sample.Raw.asc
18/05/25
08:53:53.00
18/05/25
08:53:53.00
Administrator
longitudinal
325.000000
1
Lambda 850
850L1710193
PerkinElmer UV WinLab 6.4.0.973 / 2.02.06 Lambda 800 UV/VIS, Jan 28 2016 16:58:34

0
0
2
0
0
UV/VIS
1
1
1
RBeamAtt,SBeamAtt,60mm sphere
0
0
0
0
Fix
 
0
0.16
0
0
0
 
 
 
0
 
0
319.2
0
Front
100
 
S:100 R:100
 
0
0
0
 
0
 
 
 
0
 
 
0
0
0
0
0
 
 
 
 
0
0


0
0
#HDR
-1
-1
#GR
nm
%T
1.0
0.0
900.000000
-1.000000
576
8
78.915066
0.015429
#DATA
900.000000	74.080701
899.000000	77.171217
898.000000	72.825402
897.000000	75.397781
896.000000	72.586545
895.000000	78.915066
894.000000	74.275591
893.000000	73.802637
892.000000	73.164086
891.000000	74.845102
890.000000	78.211292
889.000000	75.854019
888.000000	75.424410
887.000000	73.468860
886.000000	75.452589
885.000000	74.114533
884.000000	73.202295
883.000000	74.369539
882.000000	76.692991
881.000000	75.299291
880.000000	76.380098
879.000000	74.272683
878.000000	74.865460
877.000000	75.747503
876.000000	75.465026
875.000000	75.315410
874.000000	75.587090
873.000000	75.289999
872.000000	74.894876
871.000000	74.414661
870.000000	75.791181
869.000000	75.490556
868.000000	74.659942
867.000000	74.358451
866.000000	74.581199
865.000000	75.224781
864.000000	75.231430
863.000000	75.816334
862.000000	75.893601
861.000000	75.048338
860.000000	74.094269
859.000000	75.226478
858.000000	75.086543
857.000000	75.429979
856.000000	75.321660
855.000000	75.067396
854.000000	75.151053
853.000000	74.868710
852.000000	75.566732
851.000000	75.258444
850.000000	75.343363
849.000000	74.942778
848.000000	74.663110
847.000000	74.770281
846.000000	74.577890
845.000000	74.715490
844.000000	74.731431
843.000000	74.852308
842.000000	74.648849
841.000000	74.729924
840.000000	74.562419
839.000000	74.421342
838.000000	74.382856
837.000000	74.420513
836.000000	74.410066
835.000000	74.430067
834.000000	74.438141
833.000000	74.011041
832.000000	73.976389
831.000000	73.872457
830.000000	73.924094
829.000000	74.121928
828.000000	74.225285
827.000000	74.152548
826.000000	74.056454
825.000000	73.716013
824.000000	73.906579
823.000000	73.820525
822.000000	73.850984
821.000000	73.617761
820.000000	73.648943
819.000000	73.879934
818.000000	73.873629
817.000000	73.822379
816.000000	73.804090
815.000000	73.780082
814.000000	73.714646
813.000000	73.544458
812.000000	73.660837
811.000000	73.557723
810.000000	73.405877
809.000000	73.664846
808.000000	73.683536
807.000000	73.534856
806.000000	73.555165
805.000000	73.730070
804.000000	73.747636
803.000000	73.719163
802.000000	73.713809
801.000000	73.675855
800.000000	73.646334
799.000000	73.615685
798.000000	73.652696
797.000000	73.719929
796.000000	73.623658
795.000000	73.549796
794.000000	73.562564
793.000000	73.688932
792.000000	73.540136
791.000000	73.478884
790.000000	73.346010
789.000000	73.410226
788.000000	73.512651
787.000000	73.404450
786.000000	73.372197
785.000000	73.412196
784.000000	73.280948
783.000000	73.275509
782.000000	73.488680
781.000000	73.449548
780.000000	73.307376
779.000000	73.323035
778.000000	73.437223
777.000000	73.448280
776.000000	73.395079
775.000000	73.287267
774.000000	73.262528
773.000000	73.295245
772.000000	73.313356
771.000000	73.274487
770.000000	73.187163
769.000000	73.094478
768.000000	73.130828
767.000000	73.107223
766.000000	73.053095
765.000000	73.250423
764.000000	73.213209
763.000000	72.973412
762.000000	73.009557
761.000000	73.098489
760.000000	73.088698
759.000000	73.048901
758.000000	72.991892
757.000000	73.070234
756.000000	73.066041
755.000000	73.038618
754.000000	73.027117
753.000000	72.888799
752.000000	73.033968
751.000000	73.045858
750.000000	72.889041
749.000000	72.939979
748.000000	72.892657
747.000000	72.967610
746.000000	72.913812
745.000000	72.737114
744.000000	72.805873
743.000000	72.810326
742.000000	72.718596
741.000000	72.764852
740.000000	72.774770
739.000000	72.885251
738.000000	72.796029
737.000000	72.713306
736.000000	72.745671
735.000000	72.749170
734.000000	72.714557
733.000000	72.631647
732.000000	72.615836
731.000000	72.659603
730.000000	72.666558
729.000000	72.549778
728.000000	72.695449
727.000000	72.610579
726.000000	72.559678
725.000000	72.540237
724.000000	72.626461
723.000000	72.501930
722.000000	72.405958
721.000000	72.519073
720.000000	72.423889
719.000000	72.417360
718.000000	72.476099
717.000000	72.472279
716.000000	72.296332
715.000000	72.314412
714.000000	72.313029
713.000000	72.289329
712.000000	72.306161
711.000000	72.308247
710.000000	72.350650
709.000000	72.244996
708.000000	72.230806
707.000000	72.191013
706.000000	72.162668
705.000000	72.320188
704.000000	72.268570
703.000000	72.240614
702.000000	72.270451
701.000000	72.163102
700.000000	72.170515
699.000000	72.184802
698.000000	72.139830
697.000000	72.046226
696.000000	72.048791
695.000000	72.145931
694.000000	72.140307
693.000000	71.980469
692.000000	72.047624
691.000000	72.029433
690.000000	71.911503
689.000000	71.864862
688.000000	71.869088
687.000000	71.842948
686.000000	71.846662
685.000000	71.803482
684.000000	71.878099
683.000000	71.687248
682.000000	71.809287
681.000000	71.715488
680.000000	71.675786
679.000000	71.705769
678.000000	71.728078
677.000000	71.645829
676.000000	71.664015
675.000000	71.626296
674.000000	71.614659
673.000000	71.574586
672.000000	71.541334
671.000000	71.546503
670.000000	71.541267
669.000000	71.504956
668.000000	71.614666
667.000000	71.452534
666.000000	71.422801
665.000000	71.404741
664.000000	71.443185
663.000000	71.415354
662.000000	71.382157
661.000000	71.328553
660.000000	71.351107
659.000000	71.366466
658.000000	71.373052
657.000000	71.334647
656.000000	71.275913
655.000000	71.178506
654.000000	71.202361
653.000000	71.165628
652.000000	71.126453
651.000000	71.176492
650.000000	71.116531
649.000000	71.121585
648.000000	71.121672
647.000000	71.046912
646.000000	71.008032
645.000000	70.980479
644.000000	71.006266
643.000000	70.985229
642.000000	70.883877
641.000000	70.932274
640.000000	70.918773
639.000000	70.908586
638.000000	70.828341
637.000000	70.835505
636.000000	70.773998
635.000000	70.725432
634.000000	70.715420
633.000000	70.751840
632.000000	70.609818
631.000000	70.573353
630.000000	70.584768
629.000000	70.621889
628.000000	70.656623
627.000000	70.546049
626.000000	70.442017
625.000000	70.511135
624.000000	70.420864
623.000000	70.400626
622.000000	70.358481
621.000000	70.388655
620.000000	70.327188
619.000000	70.319912
618.000000	70.265029
617.000000	70.237082
616.000000	70.204499
615.000000	70.184319
614.000000	70.180174
613.000000	70.154688
612.000000	70.081565
611.000000	70.055861
610.000000	70.043535
609.000000	70.023898
608.000000	70.028238
607.000000	69.911490
606.000000	69.936758
605.000000	69.879299
604.000000	69.824590
603.000000	69.892230
602.000000	69.803363
601.000000	69.723684
600.000000	69.738067
599.000000	69.665648
598.000000	69.691660
597.000000	69.572933
596.000000	69.552497
595.000000	69.573939
594.000000	69.527232
593.000000	69.466376
592.000000	69.451010
591.000000	69.382980
590.000000	69.385661
589.000000	69.329773
588.000000	69.353506
587.000000	69.324575
586.000000	69.267808
585.000000	69.279337
584.000000	69.234557
583.000000	69.172182
582.000000	69.149330
581.000000	69.102074
580.000000	69.123507
579.000000	69.051990
578.000000	69.023706
577.000000	68.972156
576.000000	68.905357
575.000000	68.901368
574.000000	68.857736
573.000000	68.848762
572.000000	68.732144
571.000000	68.766112
570.000000	68.733276
569.000000	68.719507
568.000000	68.690103
567.000000	68.625218
566.000000	68.595285
565.000000	68.559137
564.000000	68.497839
563.000000	68.473337
562.000000	68.420117
561.000000	68.399621
560.000000	68.395709
559.000000	68.365406
558.000000	68.311243
557.000000	68.283247
556.000000	68.273181
555.000000	68.213495
554.000000	68.184673
553.000000	68.137911
552.000000	68.117868
551.000000	68.108121
550.000000	68.068052
549.000000	68.009347
548.000000	67.977515
547.000000	67.943326
546.000000	67.909341
545.000000	67.870304
544.000000	67.830822
543.000000	67.792768
542.000000	67.757449
541.000000	67.718419
540.000000	67.694059
539.000000	67.693866
538.000000	67.664944
537.000000	67.596804
536.000000	67.562891
535.000000	67.525269
534.000000	67.473082
533.000000	67.443964
532.000000	67.407893
531.000000	67.379773
530.000000	67.326043
529.000000	67.294716
528.000000	67.284434
527.000000	67.245417
526.000000	67.174581
525.000000	67.145601
524.000000	67.105236
523.000000	67.080783
522.000000	67.064816
521.000000	67.010029
520.000000	66.963509
519.000000	66.925618
518.000000	66.883722
517.000000	66.853271
516.000000	66.810859
515.000000	66.757065
514.000000	66.728378
513.000000	66.680474
512.000000	66.631939
511.000000	66.604443
510.000000	66.553768
509.000000	66.506271
508.000000	66.489283
507.000000	66.447328
506.000000	66.382951
505.000000	66.340041
504.000000	66.281319
503.000000	66.207299
502.000000	66.189821
501.000000	66.181144
500.000000	66.121428
499.000000	66.025897
498.000000	65.980727
497.000000	65.966638
496.000000	65.922475
495.000000	65.855809
494.000000	65.788325
493.000000	65.752104
492.000000	65.702483
491.000000	65.611549
490.000000	65.546404
489.000000	65.531916
488.000000	65.477983
487.000000	65.433516
486.000000	65.383601
485.000000	65.333085
484.000000	65.256951
483.000000	65.179732
482.000000	65.195103
481.000000	65.128069
480.000000	65.054753
479.000000	65.012789
478.000000	64.944076
477.000000	64.909894
476.000000	64.844094
475.000000	64.815774
474.000000	64.806340
473.000000	64.733734
472.000000	64.642634
471.000000	64.570007
470.000000	64.503333
469.000000	64.461893
468.000000	64.382547
467.000000	64.308763
466.000000	64.268364
465.000000	64.197134
464.000000	64.121958
463.000000	64.011444
462.000000	63.974398
461.000000	63.927324
460.000000	63.815727
459.000000	63.760112
458.000000	63.697899
457.000000	63.648085
456.000000	63.543742
455.000000	63.440903
454.000000	63.356707
453.000000	63.302155
452.000000	63.201773
451.000000	63.096116
450.000000	63.015101
449.000000	62.944694
448.000000	62.862495
447.000000	62.795444
446.000000	62.691032
445.000000	62.535484
444.000000	62.446006
443.000000	62.362199
442.000000	62.296468
441.000000	62.150226
440.000000	62.073331
439.000000	61.942917
438.000000	61.922131
437.000000	61.757457
436.000000	61.652924
435.000000	61.510628
434.000000	61.397899
433.000000	61.304546
432.000000	61.204701
431.000000	61.101325
430.000000	61.035501
429.000000	60.834490
428.000000	60.694759
427.000000	60.574703
426.000000	60.488617
425.000000	60.360298
424.000000	60.175851
423.000000	60.074086
422.000000	59.997272
421.000000	59.805663
420.000000	59.591215
419.000000	59.452561
418.000000	59.280763
417.000000	59.100107
416.000000	58.976503
415.000000	58.806503
414.000000	58.637094
413.000000	58.493944
412.000000	58.271542
411.000000	58.104761
410.000000	57.937638
409.000000	57.732147
408.000000	57.611815
407.000000	57.423529
406.000000	57.230277
405.000000	56.980753
404.000000	56.796426
403.000000	56.523583
402.000000	56.447022
401.000000	56.177672
400.000000	56.011308
399.000000	55.770569
398.000000	55.525485
397.000000	55.358705
396.000000	55.100127
395.000000	54.830097
394.000000	54.674113
393.000000	54.388499
392.000000	54.125544
391.000000	53.888952
390.000000	53.547222
389.000000	53.345387
388.000000	53.157626
387.000000	52.789430
386.000000	52.456135
385.000000	52.077040
384.000000	51.924172
383.000000	51.560736
382.000000	51.188406
381.000000	50.786789
380.000000	50.367584
379.000000	49.980216
378.000000	49.532651
377.000000	48.923819
376.000000	48.201925
375.000000	47.808337
374.000000	47.066848
373.000000	46.327796
372.000000	45.582395
371.000000	44.544677
370.000000	43.511591
369.000000	42.374166
368.000000	41.018688
367.000000	39.423905
366.000000	37.814603
365.000000	35.852474
364.000000	33.849075
363.000000	31.563538
362.000000	29.155068
361.000000	26.551699
360.000000	23.754721
359.000000	20.896505
358.000000	18.002038
357.000000	15.097522
356.000000	12.290572
355.000000	9.673073
354.000000	7.311542
353.000000	5.312335
352.000000	3.621424
351.000000	2.353964
350.000000	1.430495
349.000000	0.815463
348.000000	0.430697
347.000000	0.203583
346.000000	0.090089
345.000000	0.039725
344.000000	0.023855
343.000000	0.018325
342.000000	0.015429
341.000000	0.023786
340.000000	0.018340
339.000000	0.017283
338.000000	0.016151
337.000000	0.016917
336.000000	0.018471
335.000000	0.018506
334.000000	0.019403
333.000000	0.017741
332.000000	0.021273
331.000000	0.023816
330.000000	0.021874
329.000000	0.022563
328.000000	0.023750
327.000000	0.028756
326.000000	0.035353
325.000000	0.031200
