PE UV       SUBTECH     SPECTRUM    ASCII       PEDS        4.00        
   -1
J37.Sample.Raw.asc
18/05/25
08:57:31.00
18/05/25
08:57:31.00
Administrator
longitudinal
325.000000
1
Lambda 850
850L1710193
PerkinElmer UV WinLab 6.4.0.973 / 2.02.06 Lambda 800 UV/VIS, Jan 28 2016 16:58:34

0
0
2
0
0
UV/VIS
1
1
1
RBeamAtt,SBeamAtt,60mm sphere
0
0
0
0
Fix
 
0
0.16
0
0
0
 
 
 
0
 
0
319.2
0
Front
100
 
S:100 R:100
 
0
0
0
 
0
 
 
 
0
 
 
0
0
0
0
0
 
 
 
 
0
0


0
0
#HDR
-1
-1
#GR
nm
%T
1.0
0.0
900.000000
-1.000000
576
8
76.157911
0.016386
#DATA
900.000000	74.052449
899.000000	76.157911
898.000000	72.714008
897.000000	72.039583
896.000000	71.758354
895.000000	75.299154
894.000000	74.650432
893.000000	75.836271
892.000000	74.139696
891.000000	75.037788
890.000000	75.810205
889.000000	73.912136
888.000000	74.954617
887.000000	74.203376
886.000000	72.202477
885.000000	72.372516
884.000000	73.643293
883.000000	74.590304
882.000000	73.228426
881.000000	71.808868
880.000000	73.836657
879.000000	72.484197
878.000000	75.687166
877.000000	74.203922
876.000000	73.808009
875.000000	74.160547
874.000000	74.883027
873.000000	74.406554
872.000000	74.541704
871.000000	73.433576
870.000000	75.224022
869.000000	74.835154
868.000000	74.209532
867.000000	74.105578
866.000000	74.543871
865.000000	74.153932
864.000000	74.178197
863.000000	74.269271
862.000000	74.255200
861.000000	74.042086
860.000000	73.252458
859.000000	74.170496
858.000000	74.201360
857.000000	74.636086
856.000000	74.270516
855.000000	73.989653
854.000000	73.838480
853.000000	73.921154
852.000000	74.033629
851.000000	73.993589
850.000000	73.994146
849.000000	73.375382
848.000000	73.334472
847.000000	73.341578
846.000000	73.446042
845.000000	73.252116
844.000000	73.790670
843.000000	73.641231
842.000000	73.663367
841.000000	73.531199
840.000000	73.480553
839.000000	73.185840
838.000000	73.316095
837.000000	73.090302
836.000000	72.899363
835.000000	73.150638
834.000000	73.377711
833.000000	72.994479
832.000000	73.082991
831.000000	73.202981
830.000000	72.867647
829.000000	72.779192
828.000000	72.836896
827.000000	72.788855
826.000000	72.625717
825.000000	72.478533
824.000000	72.498910
823.000000	72.771332
822.000000	72.730144
821.000000	72.518713
820.000000	72.472355
819.000000	72.670382
818.000000	72.760475
817.000000	72.655874
816.000000	72.761637
815.000000	72.778846
814.000000	72.517505
813.000000	72.536167
812.000000	72.588154
811.000000	72.221165
810.000000	72.120596
809.000000	72.535268
808.000000	72.652080
807.000000	72.681122
806.000000	72.527968
805.000000	72.510308
804.000000	72.597849
803.000000	72.501247
802.000000	72.334677
801.000000	72.440684
800.000000	72.505288
799.000000	72.470750
798.000000	72.497324
797.000000	72.537939
796.000000	72.614574
795.000000	72.516425
794.000000	72.411877
793.000000	72.510472
792.000000	72.562220
791.000000	72.406049
790.000000	72.372318
789.000000	72.423653
788.000000	72.442012
787.000000	72.275406
786.000000	72.204350
785.000000	72.363348
784.000000	72.419203
783.000000	72.398306
782.000000	72.393691
781.000000	72.318435
780.000000	72.248517
779.000000	72.291186
778.000000	72.284740
777.000000	72.274797
776.000000	72.298815
775.000000	72.213332
774.000000	72.181054
773.000000	72.296850
772.000000	72.287276
771.000000	72.208799
770.000000	72.179751
769.000000	72.243903
768.000000	72.208186
767.000000	72.093120
766.000000	72.109966
765.000000	72.231275
764.000000	72.143708
763.000000	71.954426
762.000000	72.030739
761.000000	72.082862
760.000000	72.095987
759.000000	72.157974
758.000000	72.136280
757.000000	72.193170
756.000000	72.220573
755.000000	72.191457
754.000000	72.076083
753.000000	71.966769
752.000000	72.031760
751.000000	71.966677
750.000000	71.968792
749.000000	72.107990
748.000000	72.031662
747.000000	72.020881
746.000000	71.965216
745.000000	71.904188
744.000000	71.925398
743.000000	71.865583
742.000000	71.858084
741.000000	71.941874
740.000000	71.886814
739.000000	71.911141
738.000000	71.923688
737.000000	71.929372
736.000000	71.856826
735.000000	71.795554
734.000000	71.871199
733.000000	71.806032
732.000000	71.873561
731.000000	71.900229
730.000000	71.800259
729.000000	71.714412
728.000000	71.835557
727.000000	71.774709
726.000000	71.670080
725.000000	71.663219
724.000000	71.667794
723.000000	71.609601
722.000000	71.616018
721.000000	71.677089
720.000000	71.695240
719.000000	71.694572
718.000000	71.722139
717.000000	71.648100
716.000000	71.588292
715.000000	71.550596
714.000000	71.564398
713.000000	71.571108
712.000000	71.457868
711.000000	71.543339
710.000000	71.580943
709.000000	71.525647
708.000000	71.568051
707.000000	71.511289
706.000000	71.465863
705.000000	71.456641
704.000000	71.424721
703.000000	71.492712
702.000000	71.530834
701.000000	71.365006
700.000000	71.456677
699.000000	71.492020
698.000000	71.340662
697.000000	71.285758
696.000000	71.291511
695.000000	71.354140
694.000000	71.394106
693.000000	71.250410
692.000000	71.295497
691.000000	71.263447
690.000000	71.143888
689.000000	71.084869
688.000000	71.138059
687.000000	71.150596
686.000000	71.169440
685.000000	71.077919
684.000000	71.086008
683.000000	70.971923
682.000000	71.108352
681.000000	71.001211
680.000000	70.968729
679.000000	70.923579
678.000000	70.911583
677.000000	70.979962
676.000000	70.954671
675.000000	70.885532
674.000000	70.880427
673.000000	70.796363
672.000000	70.802939
671.000000	70.860971
670.000000	70.876837
669.000000	70.720108
668.000000	70.806868
667.000000	70.803487
666.000000	70.724739
665.000000	70.680822
664.000000	70.703645
663.000000	70.748664
662.000000	70.711473
661.000000	70.601568
660.000000	70.718991
659.000000	70.640281
658.000000	70.670903
657.000000	70.651838
656.000000	70.542938
655.000000	70.524477
654.000000	70.566863
653.000000	70.534500
652.000000	70.473493
651.000000	70.476629
650.000000	70.429583
649.000000	70.412862
648.000000	70.450663
647.000000	70.365275
646.000000	70.466647
645.000000	70.301085
644.000000	70.350053
643.000000	70.339254
642.000000	70.295579
641.000000	70.280077
640.000000	70.184669
639.000000	70.217272
638.000000	70.237336
637.000000	70.213221
636.000000	70.150416
635.000000	70.127291
634.000000	70.158079
633.000000	70.162223
632.000000	70.009685
631.000000	70.062631
630.000000	70.002760
629.000000	70.043747
628.000000	69.995094
627.000000	69.930127
626.000000	69.861140
625.000000	69.881743
624.000000	69.909035
623.000000	69.859407
622.000000	69.827395
621.000000	69.765632
620.000000	69.779631
619.000000	69.737960
618.000000	69.690377
617.000000	69.646956
616.000000	69.656020
615.000000	69.645520
614.000000	69.600149
613.000000	69.615306
612.000000	69.496798
611.000000	69.524042
610.000000	69.520138
609.000000	69.495579
608.000000	69.480643
607.000000	69.452439
606.000000	69.400283
605.000000	69.333815
604.000000	69.282322
603.000000	69.329202
602.000000	69.326180
601.000000	69.183042
600.000000	69.238629
599.000000	69.229994
598.000000	69.161618
597.000000	69.215015
596.000000	69.094600
595.000000	69.153277
594.000000	69.074494
593.000000	69.012303
592.000000	68.952565
591.000000	68.905171
590.000000	68.919558
589.000000	68.896408
588.000000	68.939279
587.000000	68.908997
586.000000	68.810479
585.000000	68.815154
584.000000	68.769081
583.000000	68.760792
582.000000	68.698378
581.000000	68.633036
580.000000	68.677696
579.000000	68.678335
578.000000	68.586197
577.000000	68.580600
576.000000	68.519201
575.000000	68.513406
574.000000	68.488512
573.000000	68.489798
572.000000	68.372012
571.000000	68.367031
570.000000	68.357104
569.000000	68.307951
568.000000	68.296909
567.000000	68.266412
566.000000	68.240813
565.000000	68.229608
564.000000	68.207401
563.000000	68.180977
562.000000	68.114814
561.000000	68.088377
560.000000	68.110325
559.000000	68.059779
558.000000	67.947643
557.000000	67.941577
556.000000	67.998576
555.000000	67.965457
554.000000	67.931458
553.000000	67.835922
552.000000	67.825681
551.000000	67.783049
550.000000	67.757041
549.000000	67.760802
548.000000	67.725426
547.000000	67.651758
546.000000	67.610425
545.000000	67.619160
544.000000	67.581547
543.000000	67.545290
542.000000	67.518033
541.000000	67.474887
540.000000	67.434592
539.000000	67.452117
538.000000	67.416656
537.000000	67.359519
536.000000	67.305027
535.000000	67.283855
534.000000	67.286315
533.000000	67.274316
532.000000	67.247152
531.000000	67.199440
530.000000	67.133886
529.000000	67.121410
528.000000	67.114257
527.000000	67.099481
526.000000	67.031238
525.000000	66.978711
524.000000	66.946975
523.000000	66.944002
522.000000	66.934373
521.000000	66.859529
520.000000	66.806936
519.000000	66.779893
518.000000	66.755370
517.000000	66.708744
516.000000	66.663384
515.000000	66.614143
514.000000	66.581912
513.000000	66.557522
512.000000	66.516736
511.000000	66.481368
510.000000	66.449614
509.000000	66.402494
508.000000	66.360140
507.000000	66.327296
506.000000	66.284031
505.000000	66.243717
504.000000	66.208507
503.000000	66.158797
502.000000	66.107008
501.000000	66.086710
500.000000	66.041891
499.000000	65.965655
498.000000	65.928573
497.000000	65.921235
496.000000	65.856737
495.000000	65.785944
494.000000	65.739277
493.000000	65.726658
492.000000	65.682900
491.000000	65.606061
490.000000	65.565860
489.000000	65.507434
488.000000	65.470034
487.000000	65.445344
486.000000	65.391362
485.000000	65.328151
484.000000	65.291181
483.000000	65.246549
482.000000	65.195365
481.000000	65.164432
480.000000	65.111593
479.000000	65.059597
478.000000	65.006311
477.000000	64.970265
476.000000	64.886085
475.000000	64.863644
474.000000	64.851624
473.000000	64.775614
472.000000	64.667430
471.000000	64.624429
470.000000	64.573831
469.000000	64.534025
468.000000	64.473358
467.000000	64.401938
466.000000	64.341789
465.000000	64.277512
464.000000	64.202881
463.000000	64.081311
462.000000	64.000042
461.000000	63.970181
460.000000	63.891762
459.000000	63.857868
458.000000	63.759588
457.000000	63.661138
456.000000	63.586993
455.000000	63.476342
454.000000	63.394094
453.000000	63.328719
452.000000	63.211100
451.000000	63.142553
450.000000	63.086935
449.000000	63.015047
448.000000	62.864804
447.000000	62.743581
446.000000	62.642275
445.000000	62.544799
444.000000	62.385260
443.000000	62.313365
442.000000	62.197473
441.000000	62.076606
440.000000	61.960633
439.000000	61.860905
438.000000	61.803974
437.000000	61.665966
436.000000	61.551837
435.000000	61.362279
434.000000	61.275535
433.000000	61.187258
432.000000	61.050263
431.000000	60.938135
430.000000	60.822455
429.000000	60.675296
428.000000	60.546874
427.000000	60.377253
426.000000	60.286991
425.000000	60.097744
424.000000	59.936822
423.000000	59.817635
422.000000	59.678049
421.000000	59.458689
420.000000	59.320112
419.000000	59.235528
418.000000	59.029711
417.000000	58.796159
416.000000	58.650394
415.000000	58.542688
414.000000	58.296372
413.000000	58.150613
412.000000	57.956597
411.000000	57.705724
410.000000	57.592124
409.000000	57.353879
408.000000	57.163773
407.000000	56.986332
406.000000	56.778800
405.000000	56.555162
404.000000	56.364892
403.000000	56.150972
402.000000	55.925609
401.000000	55.744803
400.000000	55.557005
399.000000	55.263392
398.000000	55.152736
397.000000	54.948032
396.000000	54.611739
395.000000	54.430016
394.000000	54.168482
393.000000	53.931367
392.000000	53.622634
391.000000	53.408641
390.000000	53.017759
389.000000	52.860067
388.000000	52.642368
387.000000	52.244254
386.000000	51.987344
385.000000	51.607231
384.000000	51.305522
383.000000	51.016897
382.000000	50.617720
381.000000	50.290710
380.000000	49.832899
379.000000	49.489939
378.000000	48.714673
377.000000	48.485327
376.000000	47.668836
375.000000	47.146092
374.000000	46.558859
373.000000	45.799719
372.000000	45.035479
371.000000	44.077342
370.000000	43.051089
369.000000	41.854015
368.000000	40.492083
367.000000	39.119277
366.000000	37.350754
365.000000	35.501330
364.000000	33.544148
363.000000	31.229021
362.000000	28.855887
361.000000	26.263194
360.000000	23.528093
359.000000	20.833962
358.000000	17.974348
357.000000	15.078471
356.000000	12.245669
355.000000	9.692142
354.000000	7.371705
353.000000	5.363558
352.000000	3.695945
351.000000	2.410277
350.000000	1.470065
349.000000	0.847858
348.000000	0.441520
347.000000	0.212969
346.000000	0.103056
345.000000	0.050577
344.000000	0.026667
343.000000	0.016386
342.000000	0.017273
341.000000	0.017087
340.000000	0.018922
339.000000	0.018739
338.000000	0.016929
337.000000	0.018472
336.000000	0.019249
335.000000	0.026493
334.000000	0.023888
333.000000	0.020860
332.000000	0.022932
331.000000	0.018741
330.000000	0.019921
329.000000	0.027252
328.000000	0.031960
327.000000	0.031592
326.000000	0.032611
325.000000	0.029434
