PE UV       SUBTECH     SPECTRUM    ASCII       PEDS        4.00        
   -1
J38.Sample.Raw.asc
18/05/25
09:00:59.00
18/05/25
09:00:59.00
Administrator
longitudinal
325.000000
1
Lambda 850
850L1710193
PerkinElmer UV WinLab 6.4.0.973 / 2.02.06 Lambda 800 UV/VIS, Jan 28 2016 16:58:34

0
0
2
0
0
UV/VIS
1
1
1
RBeamAtt,SBeamAtt,60mm sphere
0
0
0
0
Fix
 
0
0.16
0
0
0
 
 
 
0
 
0
319.2
0
Front
100
 
S:100 R:100
 
0
0
0
 
0
 
 
 
0
 
 
0
0
0
0
0
 
 
 
 
0
0


0
0
#HDR
-1
-1
#GR
nm
%T
1.0
0.0
900.000000
-1.000000
576
8
77.825810
0.012843
#DATA
900.000000	73.195023
899.000000	76.201463
898.000000	71.684431
897.000000	73.006304
896.000000	75.329834
895.000000	77.825810
894.000000	73.903605
893.000000	73.980454
892.000000	74.442756
891.000000	73.995344
890.000000	77.005906
889.000000	71.918180
888.000000	74.768043
887.000000	72.082264
886.000000	72.894896
885.000000	73.560458
884.000000	72.716000
883.000000	74.656657
882.000000	74.602055
881.000000	72.818268
880.000000	73.690483
879.000000	74.143959
878.000000	74.171148
877.000000	72.695322
876.000000	73.554108
875.000000	73.833459
874.000000	74.672254
873.000000	72.922421
872.000000	74.459898
871.000000	73.942513
870.000000	74.117475
869.000000	73.744433
868.000000	73.076864
867.000000	73.889745
866.000000	73.207527
865.000000	72.953647
864.000000	72.447093
863.000000	73.390255
862.000000	74.100757
861.000000	73.417324
860.000000	72.301628
859.000000	73.852108
858.000000	73.662178
857.000000	73.882579
856.000000	72.793864
855.000000	73.604011
854.000000	73.471834
853.000000	72.972666
852.000000	73.675513
851.000000	73.138623
850.000000	73.429275
849.000000	72.835905
848.000000	72.497271
847.000000	72.907443
846.000000	72.959046
845.000000	72.864869
844.000000	72.903145
843.000000	72.823522
842.000000	72.937550
841.000000	72.836930
840.000000	72.828856
839.000000	72.808250
838.000000	72.720702
837.000000	72.728272
836.000000	72.616715
835.000000	72.510545
834.000000	72.585056
833.000000	72.224875
832.000000	72.103426
831.000000	72.033742
830.000000	71.996137
829.000000	72.281194
828.000000	72.074815
827.000000	72.038188
826.000000	71.897521
825.000000	71.735912
824.000000	71.830536
823.000000	71.823812
822.000000	71.697527
821.000000	71.563128
820.000000	71.562831
819.000000	71.548332
818.000000	71.701862
817.000000	71.643153
816.000000	71.782337
815.000000	71.740675
814.000000	71.523254
813.000000	71.527373
812.000000	71.578364
811.000000	71.307069
810.000000	71.248775
809.000000	71.593550
808.000000	71.545118
807.000000	71.533691
806.000000	71.629861
805.000000	71.604402
804.000000	71.404062
803.000000	71.454103
802.000000	71.446048
801.000000	71.396280
800.000000	71.394330
799.000000	71.423840
798.000000	71.422484
797.000000	71.350246
796.000000	71.195921
795.000000	71.170220
794.000000	71.272017
793.000000	71.271703
792.000000	71.002558
791.000000	70.989477
790.000000	71.092495
789.000000	71.154673
788.000000	71.260548
787.000000	71.033297
786.000000	70.927729
785.000000	70.938386
784.000000	70.925450
783.000000	70.984800
782.000000	71.021119
781.000000	70.973985
780.000000	70.903873
779.000000	70.839064
778.000000	70.815881
777.000000	70.894712
776.000000	70.951668
775.000000	70.739161
774.000000	70.604214
773.000000	70.760324
772.000000	70.874765
771.000000	70.698293
770.000000	70.633289
769.000000	70.653920
768.000000	70.582370
767.000000	70.582957
766.000000	70.544764
765.000000	70.600519
764.000000	70.545394
763.000000	70.373888
762.000000	70.359021
761.000000	70.453583
760.000000	70.421302
759.000000	70.353884
758.000000	70.361185
757.000000	70.370666
756.000000	70.350288
755.000000	70.301402
754.000000	70.288714
753.000000	70.194569
752.000000	70.200723
751.000000	70.210580
750.000000	70.137233
749.000000	70.097762
748.000000	70.105300
747.000000	70.081782
746.000000	70.061198
745.000000	69.975299
744.000000	69.967838
743.000000	69.937683
742.000000	69.890003
741.000000	69.922016
740.000000	69.889680
739.000000	69.904146
738.000000	69.864679
737.000000	69.779421
736.000000	69.733253
735.000000	69.708917
734.000000	69.754325
733.000000	69.694377
732.000000	69.701350
731.000000	69.688067
730.000000	69.673444
729.000000	69.629083
728.000000	69.701632
727.000000	69.585585
726.000000	69.566639
725.000000	69.559645
724.000000	69.564119
723.000000	69.443965
722.000000	69.408292
721.000000	69.451235
720.000000	69.419007
719.000000	69.494883
718.000000	69.527303
717.000000	69.465740
716.000000	69.395149
715.000000	69.428481
714.000000	69.348919
713.000000	69.298478
712.000000	69.233089
711.000000	69.290530
710.000000	69.233794
709.000000	69.170654
708.000000	69.195264
707.000000	69.197188
706.000000	69.194859
705.000000	69.139650
704.000000	69.169506
703.000000	69.143865
702.000000	69.127099
701.000000	68.996285
700.000000	69.066556
699.000000	69.062655
698.000000	69.055918
697.000000	68.975564
696.000000	68.943207
695.000000	68.953401
694.000000	68.868337
693.000000	68.813244
692.000000	68.814684
691.000000	68.883145
690.000000	68.699870
689.000000	68.668049
688.000000	68.640685
687.000000	68.713376
686.000000	68.603982
685.000000	68.529139
684.000000	68.611094
683.000000	68.535124
682.000000	68.534643
681.000000	68.397763
680.000000	68.407654
679.000000	68.367801
678.000000	68.295260
677.000000	68.400749
676.000000	68.319545
675.000000	68.279581
674.000000	68.155091
673.000000	68.166024
672.000000	68.169522
671.000000	68.081500
670.000000	68.129612
669.000000	68.052285
668.000000	68.083059
667.000000	67.979941
666.000000	67.899394
665.000000	67.926572
664.000000	67.837873
663.000000	67.792948
662.000000	67.781602
661.000000	67.700929
660.000000	67.640273
659.000000	67.575550
658.000000	67.581339
657.000000	67.572493
656.000000	67.455929
655.000000	67.393008
654.000000	67.412884
653.000000	67.315360
652.000000	67.251949
651.000000	67.258510
650.000000	67.239008
649.000000	67.143853
648.000000	67.095268
647.000000	67.067558
646.000000	67.053432
645.000000	66.942475
644.000000	66.915818
643.000000	66.864634
642.000000	66.749223
641.000000	66.757761
640.000000	66.681357
639.000000	66.608526
638.000000	66.611104
637.000000	66.537130
636.000000	66.478993
635.000000	66.393825
634.000000	66.251018
633.000000	66.375674
632.000000	66.135436
631.000000	66.137495
630.000000	66.059273
629.000000	66.057304
628.000000	66.056352
627.000000	65.895315
626.000000	65.785044
625.000000	65.797294
624.000000	65.749968
623.000000	65.690311
622.000000	65.534819
621.000000	65.510115
620.000000	65.443492
619.000000	65.405377
618.000000	65.295851
617.000000	65.206500
616.000000	65.138934
615.000000	65.128811
614.000000	64.995285
613.000000	65.030515
612.000000	64.954450
611.000000	64.866012
610.000000	64.783141
609.000000	64.748061
608.000000	64.631967
607.000000	64.570538
606.000000	64.507928
605.000000	64.385607
604.000000	64.295694
603.000000	64.350691
602.000000	64.274153
601.000000	64.087546
600.000000	64.050049
599.000000	63.997330
598.000000	63.928717
597.000000	63.852726
596.000000	63.789681
595.000000	63.757320
594.000000	63.666696
593.000000	63.613701
592.000000	63.448832
591.000000	63.427392
590.000000	63.323691
589.000000	63.290683
588.000000	63.262932
587.000000	63.230635
586.000000	63.092809
585.000000	63.099749
584.000000	62.993649
583.000000	62.901108
582.000000	62.823290
581.000000	62.757664
580.000000	62.747427
579.000000	62.654372
578.000000	62.543352
577.000000	62.444088
576.000000	62.346499
575.000000	62.312154
574.000000	62.272434
573.000000	62.203795
572.000000	62.108492
571.000000	62.079916
570.000000	62.028613
569.000000	61.930858
568.000000	61.862244
567.000000	61.764098
566.000000	61.730322
565.000000	61.692070
564.000000	61.590275
563.000000	61.521920
562.000000	61.458715
561.000000	61.403275
560.000000	61.348076
559.000000	61.314008
558.000000	61.207283
557.000000	61.150838
556.000000	61.112890
555.000000	61.065253
554.000000	61.004305
553.000000	60.914992
552.000000	60.859268
551.000000	60.769824
550.000000	60.706322
549.000000	60.661919
548.000000	60.617040
547.000000	60.560342
546.000000	60.513235
545.000000	60.450556
544.000000	60.373117
543.000000	60.307876
542.000000	60.259978
541.000000	60.218454
540.000000	60.133802
539.000000	60.099826
538.000000	60.099350
537.000000	60.013375
536.000000	59.921498
535.000000	59.881867
534.000000	59.825585
533.000000	59.769436
532.000000	59.742676
531.000000	59.688324
530.000000	59.601237
529.000000	59.558501
528.000000	59.522511
527.000000	59.470534
526.000000	59.397278
525.000000	59.363851
524.000000	59.327557
523.000000	59.283828
522.000000	59.238348
521.000000	59.169645
520.000000	59.104546
519.000000	59.056092
518.000000	59.008237
517.000000	58.959770
516.000000	58.914750
515.000000	58.847345
514.000000	58.785365
513.000000	58.731615
512.000000	58.677916
511.000000	58.638662
510.000000	58.599216
509.000000	58.554734
508.000000	58.519851
507.000000	58.478104
506.000000	58.424974
505.000000	58.365080
504.000000	58.295230
503.000000	58.235989
502.000000	58.218419
501.000000	58.189203
500.000000	58.139607
499.000000	58.072590
498.000000	57.986765
497.000000	57.924811
496.000000	57.900319
495.000000	57.825437
494.000000	57.727949
493.000000	57.721512
492.000000	57.673536
491.000000	57.589424
490.000000	57.516933
489.000000	57.466045
488.000000	57.442778
487.000000	57.407249
486.000000	57.369587
485.000000	57.312652
484.000000	57.268288
483.000000	57.195940
482.000000	57.153646
481.000000	57.089549
480.000000	57.063753
479.000000	57.031439
478.000000	56.999332
477.000000	56.953319
476.000000	56.855841
475.000000	56.807541
474.000000	56.818956
473.000000	56.810183
472.000000	56.759440
471.000000	56.689548
470.000000	56.604955
469.000000	56.579132
468.000000	56.543566
467.000000	56.474097
466.000000	56.431916
465.000000	56.372015
464.000000	56.308072
463.000000	56.246809
462.000000	56.207272
461.000000	56.139371
460.000000	56.069867
459.000000	56.010116
458.000000	55.961648
457.000000	55.895088
456.000000	55.801898
455.000000	55.752647
454.000000	55.692346
453.000000	55.659750
452.000000	55.563462
451.000000	55.459930
450.000000	55.387223
449.000000	55.290043
448.000000	55.253973
447.000000	55.181558
446.000000	55.073215
445.000000	54.951724
444.000000	54.865695
443.000000	54.834409
442.000000	54.746084
441.000000	54.644671
440.000000	54.615321
439.000000	54.493152
438.000000	54.442567
437.000000	54.358757
436.000000	54.246830
435.000000	54.144741
434.000000	54.089103
433.000000	54.045168
432.000000	53.922799
431.000000	53.795266
430.000000	53.764678
429.000000	53.628909
428.000000	53.552448
427.000000	53.398510
426.000000	53.322744
425.000000	53.276676
424.000000	53.147851
423.000000	53.032212
422.000000	53.005297
421.000000	52.778686
420.000000	52.695429
419.000000	52.559158
418.000000	52.455552
417.000000	52.323172
416.000000	52.223190
415.000000	52.125893
414.000000	51.986289
413.000000	51.867111
412.000000	51.699329
411.000000	51.545670
410.000000	51.512785
409.000000	51.319505
408.000000	51.176394
407.000000	50.984761
406.000000	50.858097
405.000000	50.708861
404.000000	50.526178
403.000000	50.395652
402.000000	50.278630
401.000000	50.118975
400.000000	49.915263
399.000000	49.764499
398.000000	49.615905
397.000000	49.475375
396.000000	49.200188
395.000000	49.053713
394.000000	48.844506
393.000000	48.721609
392.000000	48.410333
391.000000	48.307659
390.000000	48.056141
389.000000	47.853334
388.000000	47.773945
387.000000	47.420034
386.000000	47.243081
385.000000	46.920784
384.000000	46.791940
383.000000	46.502977
382.000000	46.333206
381.000000	45.984327
380.000000	45.744679
379.000000	45.528341
378.000000	45.168135
377.000000	44.734143
376.000000	44.203661
375.000000	44.015441
374.000000	43.649137
373.000000	43.235274
372.000000	42.786509
371.000000	42.233175
370.000000	41.718299
369.000000	41.020421
368.000000	40.221107
367.000000	39.395188
366.000000	38.472878
365.000000	37.262493
364.000000	36.080426
363.000000	34.762707
362.000000	33.170371
361.000000	31.585676
360.000000	29.633344
359.000000	27.671688
358.000000	25.521605
357.000000	23.209786
356.000000	20.647229
355.000000	18.124732
354.000000	15.606904
353.000000	13.068131
352.000000	10.589425
351.000000	8.307744
350.000000	6.268138
349.000000	4.523390
348.000000	3.094986
347.000000	1.993451
346.000000	1.193414
345.000000	0.660019
344.000000	0.336685
343.000000	0.159788
342.000000	0.069287
341.000000	0.031845
340.000000	0.023482
339.000000	0.019322
338.000000	0.012843
337.000000	0.015847
336.000000	0.023623
335.000000	0.027467
334.000000	0.023985
333.000000	0.027196
332.000000	0.026738
331.000000	0.020498
330.000000	0.022167
329.000000	0.022172
328.000000	0.025901
327.000000	0.031886
326.000000	0.032709
325.000000	0.029826
