PE UV       SUBTECH     SPECTRUM    ASCII       PEDS        4.00        
   -1
J44.Sample.Raw.asc
18/05/25
09:08:23.00
18/05/25
09:08:23.00
Administrator
longitudinal
325.000000
1
Lambda 850
850L1710193
PerkinElmer UV WinLab 6.4.0.973 / 2.02.06 Lambda 800 UV/VIS, Jan 28 2016 16:58:34

0
0
2
0
0
UV/VIS
1
1
1
RBeamAtt,SBeamAtt,60mm sphere
0
0
0
0
Fix
 
0
0.16
0
0
0
 
 
 
0
 
0
319.2
0
Front
100
 
S:100 R:100
 
0
0
0
 
0
 
 
 
0
 
 
0
0
0
0
0
 
 
 
 
0
0


0
0
#HDR
-1
-1
#GR
nm
%T
1.0
0.0
900.000000
-1.000000
576
8
76.918301
0.014951
#DATA
900.000000	75.076660
899.000000	76.918301
898.000000	74.215049
897.000000	71.445341
896.000000	70.268054
895.000000	76.372311
894.000000	73.810809
893.000000	75.187853
892.000000	76.818736
891.000000	73.032091
890.000000	75.122848
889.000000	74.150393
888.000000	73.977804
887.000000	73.392028
886.000000	71.857520
885.000000	75.642375
884.000000	75.524000
883.000000	75.198553
882.000000	74.720926
881.000000	74.368047
880.000000	75.239467
879.000000	74.531252
878.000000	74.322768
877.000000	74.747600
876.000000	74.150665
875.000000	73.889100
874.000000	76.197417
873.000000	74.254227
872.000000	74.540066
871.000000	74.297228
870.000000	75.562408
869.000000	74.998009
868.000000	74.347698
867.000000	73.558697
866.000000	74.335231
865.000000	74.830393
864.000000	74.190837
863.000000	75.116668
862.000000	75.568005
861.000000	74.621031
860.000000	73.860461
859.000000	74.684610
858.000000	74.465618
857.000000	75.342864
856.000000	74.482717
855.000000	74.346154
854.000000	74.461412
853.000000	74.415900
852.000000	74.555034
851.000000	74.888583
850.000000	74.707819
849.000000	74.077926
848.000000	73.852739
847.000000	74.029319
846.000000	74.149256
845.000000	74.003836
844.000000	74.430773
843.000000	74.050718
842.000000	73.913087
841.000000	74.012476
840.000000	73.814866
839.000000	73.951713
838.000000	73.955159
837.000000	73.765604
836.000000	73.808504
835.000000	73.846186
834.000000	73.739200
833.000000	73.483032
832.000000	73.595047
831.000000	73.534455
830.000000	73.460665
829.000000	73.564549
828.000000	73.717567
827.000000	73.442571
826.000000	73.307367
825.000000	73.068448
824.000000	73.306209
823.000000	73.281028
822.000000	73.233753
821.000000	73.105167
820.000000	73.196435
819.000000	73.137221
818.000000	73.148034
817.000000	73.223205
816.000000	73.096869
815.000000	73.065880
814.000000	73.046608
813.000000	73.101158
812.000000	73.114181
811.000000	72.939509
810.000000	72.929572
809.000000	73.098676
808.000000	73.144537
807.000000	73.081757
806.000000	73.122885
805.000000	73.013198
804.000000	72.864529
803.000000	72.940102
802.000000	72.965838
801.000000	72.932557
800.000000	72.863903
799.000000	72.946534
798.000000	73.023461
797.000000	72.904853
796.000000	72.902261
795.000000	72.854737
794.000000	72.903710
793.000000	72.904916
792.000000	72.862368
791.000000	72.733002
790.000000	72.636154
789.000000	72.722439
788.000000	72.928903
787.000000	72.810884
786.000000	72.725102
785.000000	72.752081
784.000000	72.616889
783.000000	72.694606
782.000000	72.829445
781.000000	72.759277
780.000000	72.706226
779.000000	72.644209
778.000000	72.625745
777.000000	72.762587
776.000000	72.784945
775.000000	72.646569
774.000000	72.575728
773.000000	72.605692
772.000000	72.644019
771.000000	72.574519
770.000000	72.477561
769.000000	72.515218
768.000000	72.566545
767.000000	72.465121
766.000000	72.352047
765.000000	72.533942
764.000000	72.550814
763.000000	72.311554
762.000000	72.334025
761.000000	72.435629
760.000000	72.458400
759.000000	72.450169
758.000000	72.380122
757.000000	72.371934
756.000000	72.339034
755.000000	72.321436
754.000000	72.322159
753.000000	72.277769
752.000000	72.347691
751.000000	72.312036
750.000000	72.244296
749.000000	72.405129
748.000000	72.357500
747.000000	72.271107
746.000000	72.152120
745.000000	72.012352
744.000000	72.051180
743.000000	72.104949
742.000000	72.048455
741.000000	72.107084
740.000000	72.034152
739.000000	72.229399
738.000000	72.257281
737.000000	72.133020
736.000000	72.134425
735.000000	72.071855
734.000000	72.035142
733.000000	72.005070
732.000000	72.043827
731.000000	71.978885
730.000000	71.957105
729.000000	71.862727
728.000000	72.058047
727.000000	71.998936
726.000000	71.917362
725.000000	71.879448
724.000000	71.890214
723.000000	71.763161
722.000000	71.788249
721.000000	71.843094
720.000000	71.750529
719.000000	71.759631
718.000000	71.812797
717.000000	71.900282
716.000000	71.789851
715.000000	71.857827
714.000000	71.748971
713.000000	71.718026
712.000000	71.749794
711.000000	71.692198
710.000000	71.725641
709.000000	71.635885
708.000000	71.664247
707.000000	71.647803
706.000000	71.655862
705.000000	71.627294
704.000000	71.560857
703.000000	71.594310
702.000000	71.520716
701.000000	71.499764
700.000000	71.598788
699.000000	71.573544
698.000000	71.547831
697.000000	71.403771
696.000000	71.442102
695.000000	71.454639
694.000000	71.489655
693.000000	71.424728
692.000000	71.444745
691.000000	71.434899
690.000000	71.309138
689.000000	71.258970
688.000000	71.222179
687.000000	71.254973
686.000000	71.248863
685.000000	71.149964
684.000000	71.267518
683.000000	71.098417
682.000000	71.223065
681.000000	71.178004
680.000000	71.117300
679.000000	71.064179
678.000000	71.134642
677.000000	71.061005
676.000000	71.077756
675.000000	70.980818
674.000000	70.973985
673.000000	70.921816
672.000000	70.845900
671.000000	70.877731
670.000000	70.907165
669.000000	70.844795
668.000000	70.934735
667.000000	70.810961
666.000000	70.790410
665.000000	70.801475
664.000000	70.747536
663.000000	70.787272
662.000000	70.768103
661.000000	70.649020
660.000000	70.723080
659.000000	70.639150
658.000000	70.680825
657.000000	70.590192
656.000000	70.644776
655.000000	70.576708
654.000000	70.511315
653.000000	70.476578
652.000000	70.379244
651.000000	70.511212
650.000000	70.413380
649.000000	70.326526
648.000000	70.393402
647.000000	70.403899
646.000000	70.351534
645.000000	70.231777
644.000000	70.332346
643.000000	70.302882
642.000000	70.221976
641.000000	70.215529
640.000000	70.158489
639.000000	70.175128
638.000000	70.136188
637.000000	70.150024
636.000000	70.010882
635.000000	69.950372
634.000000	69.936767
633.000000	69.914074
632.000000	69.878019
631.000000	69.821501
630.000000	69.853240
629.000000	69.874333
628.000000	69.877829
627.000000	69.770446
626.000000	69.659187
625.000000	69.684648
624.000000	69.723417
623.000000	69.647710
622.000000	69.576320
621.000000	69.560727
620.000000	69.510922
619.000000	69.476243
618.000000	69.454816
617.000000	69.341404
616.000000	69.350036
615.000000	69.369383
614.000000	69.295397
613.000000	69.383830
612.000000	69.265657
611.000000	69.272796
610.000000	69.200937
609.000000	69.154050
608.000000	69.120512
607.000000	69.132249
606.000000	69.017362
605.000000	68.985766
604.000000	68.939620
603.000000	69.013917
602.000000	68.926776
601.000000	68.848663
600.000000	68.878236
599.000000	68.785494
598.000000	68.736657
597.000000	68.715805
596.000000	68.674795
595.000000	68.684677
594.000000	68.610628
593.000000	68.586872
592.000000	68.492986
591.000000	68.480685
590.000000	68.419223
589.000000	68.387052
588.000000	68.398541
587.000000	68.410760
586.000000	68.344038
585.000000	68.286036
584.000000	68.220008
583.000000	68.187158
582.000000	68.169551
581.000000	68.106452
580.000000	68.104873
579.000000	68.026717
578.000000	68.024787
577.000000	68.021222
576.000000	67.898148
575.000000	67.920290
574.000000	67.857246
573.000000	67.804820
572.000000	67.776112
571.000000	67.796766
570.000000	67.721415
569.000000	67.691319
568.000000	67.642434
567.000000	67.556160
566.000000	67.522665
565.000000	67.529336
564.000000	67.482356
563.000000	67.470898
562.000000	67.377115
561.000000	67.369138
560.000000	67.378056
559.000000	67.316265
558.000000	67.248945
557.000000	67.192665
556.000000	67.199868
555.000000	67.190206
554.000000	67.145574
553.000000	67.043615
552.000000	66.986102
551.000000	66.972859
550.000000	66.954339
549.000000	66.918301
548.000000	66.892591
547.000000	66.876166
546.000000	66.837314
545.000000	66.777296
544.000000	66.754826
543.000000	66.683352
542.000000	66.629457
541.000000	66.619515
540.000000	66.556053
539.000000	66.547219
538.000000	66.538520
537.000000	66.493053
536.000000	66.442778
535.000000	66.387824
534.000000	66.339657
533.000000	66.317312
532.000000	66.295966
531.000000	66.258708
530.000000	66.186433
529.000000	66.156159
528.000000	66.155496
527.000000	66.148237
526.000000	66.081216
525.000000	66.028736
524.000000	65.996713
523.000000	65.967293
522.000000	65.963629
521.000000	65.874878
520.000000	65.800044
519.000000	65.770173
518.000000	65.736909
517.000000	65.721621
516.000000	65.686666
515.000000	65.623455
514.000000	65.598637
513.000000	65.569453
512.000000	65.502998
511.000000	65.464184
510.000000	65.436068
509.000000	65.388012
508.000000	65.370574
507.000000	65.343402
506.000000	65.274965
505.000000	65.208735
504.000000	65.177450
503.000000	65.144150
502.000000	65.093464
501.000000	65.058335
500.000000	64.999551
499.000000	64.952033
498.000000	64.910103
497.000000	64.865595
496.000000	64.811072
495.000000	64.760076
494.000000	64.669533
493.000000	64.598506
492.000000	64.592922
491.000000	64.498306
490.000000	64.409987
489.000000	64.383083
488.000000	64.323422
487.000000	64.258684
486.000000	64.232141
485.000000	64.224534
484.000000	64.174344
483.000000	64.079128
482.000000	64.025083
481.000000	63.971280
480.000000	63.938390
479.000000	63.935073
478.000000	63.858024
477.000000	63.835461
476.000000	63.754592
475.000000	63.717036
474.000000	63.719504
473.000000	63.648972
472.000000	63.576267
471.000000	63.510154
470.000000	63.463053
469.000000	63.445122
468.000000	63.362813
467.000000	63.270042
466.000000	63.234697
465.000000	63.168791
464.000000	63.113729
463.000000	63.007068
462.000000	62.939771
461.000000	62.896982
460.000000	62.829937
459.000000	62.750080
458.000000	62.687974
457.000000	62.616613
456.000000	62.526410
455.000000	62.419829
454.000000	62.320613
453.000000	62.274135
452.000000	62.217781
451.000000	62.102748
450.000000	62.058531
449.000000	61.953974
448.000000	61.825768
447.000000	61.733867
446.000000	61.661184
445.000000	61.566944
444.000000	61.473894
443.000000	61.388780
442.000000	61.303858
441.000000	61.202896
440.000000	61.067368
439.000000	61.010578
438.000000	60.972261
437.000000	60.831822
436.000000	60.721864
435.000000	60.583135
434.000000	60.519003
433.000000	60.417430
432.000000	60.337721
431.000000	60.217012
430.000000	60.054407
429.000000	59.901534
428.000000	59.827532
427.000000	59.732296
426.000000	59.629370
425.000000	59.450122
424.000000	59.306291
423.000000	59.203847
422.000000	59.134095
421.000000	58.920318
420.000000	58.754192
419.000000	58.719805
418.000000	58.549130
417.000000	58.346132
416.000000	58.252134
415.000000	58.103951
414.000000	57.969287
413.000000	57.799642
412.000000	57.572313
411.000000	57.411066
410.000000	57.287823
409.000000	57.112406
408.000000	56.977807
407.000000	56.777598
406.000000	56.595001
405.000000	56.382586
404.000000	56.212435
403.000000	56.037142
402.000000	55.908744
401.000000	55.663640
400.000000	55.414174
399.000000	55.250221
398.000000	55.093401
397.000000	54.898423
396.000000	54.630028
395.000000	54.394385
394.000000	54.157708
393.000000	53.987113
392.000000	53.689056
391.000000	53.510784
390.000000	53.208750
389.000000	52.910363
388.000000	52.718233
387.000000	52.380525
386.000000	52.157718
385.000000	51.804656
384.000000	51.522144
383.000000	51.226723
382.000000	50.895462
381.000000	50.593964
380.000000	50.250509
379.000000	49.842157
378.000000	49.250725
377.000000	48.908793
376.000000	48.261084
375.000000	47.832840
374.000000	47.184091
373.000000	46.592355
372.000000	45.894904
371.000000	45.180422
370.000000	44.182172
369.000000	43.202999
368.000000	42.018428
367.000000	40.769596
366.000000	39.301502
365.000000	37.612013
364.000000	35.895708
363.000000	33.874044
362.000000	31.720387
361.000000	29.376136
360.000000	26.793410
359.000000	24.166024
358.000000	21.444436
357.000000	18.583031
356.000000	15.702098
355.000000	12.895344
354.000000	10.309859
353.000000	7.931170
352.000000	5.826575
351.000000	4.055637
350.000000	2.697113
349.000000	1.689816
348.000000	0.983249
347.000000	0.522117
346.000000	0.256236
345.000000	0.118013
344.000000	0.058474
343.000000	0.029863
342.000000	0.019311
341.000000	0.014951
340.000000	0.018631
339.000000	0.016020
338.000000	0.017416
337.000000	0.021583
336.000000	0.021193
335.000000	0.022305
334.000000	0.018623
333.000000	0.020665
332.000000	0.024103
331.000000	0.026257
330.000000	0.028320
329.000000	0.025396
328.000000	0.029028
327.000000	0.030125
326.000000	0.034863
325.000000	0.035517
